File: FirefighterJacket/data/DMA/feb26_dma/feb26_strain30.csv
Time	Sample     	Program Temperature	Frequency     	Raw Dynamic	Raw Static	In-Phase     	Out-Of-Phase	Zero Displacement	Min Displacement	Max Displacement	Spring     	C*     	Measured     	Corrected     	Corrected     	Stiffness*	Total     	Stiffness     	Inertia     	Sample     	Ratio of     	Total     	Sample     	Total Applied	Static Force	Static     	Static Displacement	Static Displacement Corrected	Static Stress	Static     	Static Strain	Static     	Dynamic Force	Displacement	Dynamic     	Dynamic     	Storage Modulus	Loss Modulus	Tan Delta	Loss Viscosity	Storage     	Complex     	Shear Storage	Shear Loss	Complex     	Shear Complex
          	Temperature		          	Force     	Force     	Angle     	Angle     	               	               	               	Stiffness     	          	Tan Delta     	Total Tan Delta	Total Delta	          	Stiffness'	Less Spring	          	Stiffness'	Sample to Total	Stiffness''	Stiffness''	Static Force	          	Force Corrected	Displacement	Displacement Co	          	Stress Correcte	          	Strain Correcte	          	Amplitude     	Stress     	Strain     		          	          	               	Viscosity     	Viscosity     	Modulus     	Modulus     	Modulus     	Modulus
0	93.9875	94	1.000001	166	2171	570987	127047.25	40893208	38932.875	40740.5	0.000045	584951	0.222505	0.209178	0.206204	14875.2	14593.2	12243.4	1.863819	12245.3	0.839002	3060.15	3058.76	0.646509	0.979066	0	0.141527	0	265531	0	0.024276	0	0.363073	0.028419	98468.5	0.004875	1.93616e+07	4.83635e+06	0.249791	769728	3.08148e+06	3.17617e+06	7.17095e+06	1.79124e+06	1.99565e+07	7.39128e+06
1.725362	99.65	97.4507	1.000001	171	2174	592456.625	113483.375	40950722.125	38960.25	40810.375	0.000045	603227	0.191547	0.178378	0.176521	14858.9	14661.9	12313	1.863819	12314.9	0.839818	2621.82	2620.42	0.66215	0.990306	0.01124	0.139708	0.001819	268580	3048.4	0.023964	0.000312	0.374373	0.029475	101533	0.005056	1.94717e+07	4.14327e+06	0.212785	659422	3.09901e+06	3.16839e+06	7.21173e+06	1.53455e+06	1.99076e+07	7.37319e+06
3.416403	101.2625	100.833	1.000001	171	2174	598259.875	109587.375	40948239.625	38940.875	40814.5	0.000045	608214	0.183177	0.170046	0.168435	14737.1	14562.1	12213.2	1.863819	12215	0.838718	2482.28	2480.88	0.66215	0.990496	0.01143	0.139787	0.001741	268631	3099.9	0.023977	0.000299	0.373882	0.029761	101400	0.005105	1.93137e+07	3.92264e+06	0.203101	624307	3.07388e+06	3.13663e+06	7.15324e+06	1.45283e+06	1.97081e+07	7.29929e+06
5.120186	104.2	104.24	1.000001	171	2174	600192	107525.25	40934107	38915.875	40801	0.000045	609748	0.179151	0.166038	0.164537	14700.1	14535	12185.8	1.863819	12187.7	0.838401	2419.24	2417.85	0.66215	0.991578	0.012511	0.140234	0.001294	268924	3393.11	0.024054	0.000222	0.373741	0.029856	101362	0.005121	1.92705e+07	3.82297e+06	0.198385	608444	3.06699e+06	3.12677e+06	7.13723e+06	1.41592e+06	1.96461e+07	7.27632e+06
6.82184	107.6375	107.644	1.000001	171	2174	600808.125	105863.375	40917823.375	38906.75	40783.5	0.000045	610063	0.176202	0.163101	0.161678	14692.4	14534.3	12184.9	1.863819	12186.8	0.838377	2376.34	2374.94	0.66215	0.992824	0.013757	0.140749	0.000779	269262	3731.04	0.024142	0.000134	0.37373	0.029886	101359	0.005126	1.92691e+07	3.75513e+06	0.194879	597647	3.06676e+06	3.12446e+06	7.13669e+06	1.39079e+06	1.96316e+07	7.27095e+06
8.513662	110.9	111.027	1.000001	171	2174	601055	104723.25	40904637	38894.625	40768.625	0.000045	610110	0.174232	0.161141	0.159767	14691.3	14537.7	12188.1	1.863819	12190	0.8384	2348.32	2346.93	0.66215	0.993833	0.014766	0.141166	0.000362	269536	4004.77	0.024214	0.000062	0.373741	0.029897	101362	0.005128	1.92742e+07	3.71083e+06	0.192529	590597	3.06757e+06	3.12391e+06	7.13858e+06	1.37438e+06	1.96281e+07	7.26968e+06
10.1925	114.2625	114.385	1.000001	171	2174	600796.875	103961.375	40893877.625	38884.125	40761.125	0.000045	609725	0.173039	0.159952	0.158609	14700.6	14549.6	12199.9	1.863819	12201.7	0.838521	2332.92	2331.52	0.66215	0.994657	0.01559	0.141506	0.000021	269759	4228.16	0.024272	0.000004	0.373795	0.029884	101376	0.005126	1.92927e+07	3.68648e+06	0.191081	586721	3.07053e+06	3.12608e+06	7.14546e+06	1.36536e+06	1.96418e+07	7.27473e+06
11.8882	117.6625	117.776	1.000001	171	2174	599830.75	103200.75	40886947.25	38884.5	40751.125	0.000045	608644	0.17205	0.158967	0.157648	14726.7	14577.8	12227.9	1.863819	12229.8	0.838825	2323.04	2321.65	0.66215	0.995187	0.016121	0.141725	0.000198	269903	4372.08	0.02431	0.000034	0.37393	0.029835	101413	0.005118	1.93371e+07	3.67087e+06	0.189836	584236	3.07759e+06	3.13255e+06	7.16188e+06	1.35958e+06	1.96824e+07	7.28979e+06
13.5746	121.075	121.149	1.000001	171	2174	598379.125	102665.125	40884681.625	38889.375	40747.625	0.000045	607122	0.171572	0.158492	0.157184	14763.6	14615.5	12265.6	1.863819	12267.5	0.839239	2322.1	2320.7	0.66215	0.995361	0.016294	0.141797	0.00027	269950	4419.13	0.024322	0.000046	0.374114	0.029763	101463	0.005105	1.93966e+07	3.66937e+06	0.189176	583998	3.08707e+06	3.14182e+06	7.18394e+06	1.35903e+06	1.97407e+07	7.31136e+06
15.27133	124.4625	124.543	1.000001	171	2174	596084.25	101925.75	40885925.75	38884	40741.25	0.000045	604736	0.170992	0.157914	0.156621	14821.9	14674.6	12324.7	1.863819	12326.6	0.839888	2323.02	2321.63	0.66215	0.995265	0.016199	0.141758	0.00023	269924	4393.29	0.024315	0.00004	0.374404	0.029648	101541	0.005085	1.94902e+07	3.67083e+06	0.188343	584230	3.10195e+06	3.15649e+06	7.21858e+06	1.35957e+06	1.98328e+07	7.3455e+06
16.9663	127.7875	127.933	1.000001	171	2174	592648.375	101256.375	40893844.875	38906.625	40742.25	0.000045	601236	0.170854	0.157777	0.156487	14908.2	14760.6	12410.8	1.863819	12412.7	0.840828	2334.62	2333.23	0.66215	0.994659	0.015593	0.141507	0.00002	269760	4228.84	0.024272	0.000003	0.374823	0.029477	101655	0.005056	1.96262e+07	3.68917e+06	0.187971	587149	3.12361e+06	3.17831e+06	7.26898e+06	1.36636e+06	1.997e+07	7.39628e+06
18.6628	131.2	131.326	1.000001	171	2174	587535	100632.75	40909336.75	38928.875	40749	0.000045	596091	0.17128	0.1582	0.1569	15036.8	14887.3	12537.8	1.863819	12539.6	0.842199	2361.04	2359.65	0.66215	0.993473	0.014407	0.141017	0.00051	269438	3907.2	0.024188	0.000088	0.375434	0.029222	101821	0.005012	1.9827e+07	3.73094e+06	0.188175	593798	3.15556e+06	3.21095e+06	7.34333e+06	1.38183e+06	2.0175e+07	7.47222e+06
20.4409	134.825	134.882	1.000001	177	2179	585445.75	102368	40997627.5	39011	40835.25	0.000045	594328	0.174855	0.16176	0.160371	15610.6	15448.1	13100	1.863819	13101.8	0.848017	2505.36	2503.96	0.688219	1.012789	0.033723	0.138225	0.003303	274677	9145.92	0.023709	0.000567	0.391292	0.029117	106122	0.004994	2.07159e+07	3.95913e+06	0.191115	630115	3.29704e+06	3.35671e+06	7.67256e+06	1.46635e+06	2.10909e+07	7.81143e+06
22.2167	138.35	138.433	1.000001	183	2183	587108.875	104338.375	41099428.125	39103.875	40937.125	0.000045	596308	0.177716	0.164609	0.163146	16086.2	15912.7	13566.1	1.863819	13568	0.852552	2626.35	2624.96	0.709074	1.025871	0.046805	0.135005	0.006523	278225	12693.9	0.023157	0.001119	0.406719	0.029198	110306	0.005008	2.14529e+07	4.15044e+06	0.193467	660563	3.41434e+06	3.47765e+06	7.94553e+06	1.5372e+06	2.18507e+07	8.09287e+06
24.0214	141.95	142.043	1.000001	194	2192	584078.125	107258.375	41282899.125	39280.125	41112.25	0.000045	593845	0.183637	0.170504	0.16888	17123.9	16925.5	14581.7	1.863819	14583.6	0.861538	2894.07	2892.68	0.755998	1.058821	0.079754	0.129201	0.012326	287161	21630	0.022161	0.002114	0.435711	0.029045	118169	0.004982	2.30587e+07	4.57375e+06	0.198352	727934	3.66991e+06	3.74141e+06	8.54027e+06	1.69398e+06	2.3508e+07	8.70665e+06
25.8258	145.5	145.652	1.000001	206	2201	583898	110167.5	41503934.75	39491.625	41325	0.000045	594200	0.188676	0.17552	0.17375	18172.2	17949.4	15608.8	1.863819	15610.7	0.869614	3159.98	3158.6	0.802923	1.088965	0.109899	0.12221	0.019318	295337	29805.5	0.020962	0.003313	0.467	0.029033	126654	0.00498	2.46827e+07	4.9942e+06	0.202336	794851	3.92837e+06	4.00798e+06	9.14174e+06	1.8497e+06	2.51829e+07	9.327e+06
27.6258	149.15	149.252	1.000001	218	2210	581396.25	112699	41768903.25	39745.375	41583.375	0.000045	592218	0.193842	0.180662	0.178734	19295.1	19044.8	16707.9	1.863819	16709.8	0.877306	3451.71	3450.32	0.849847	1.115853	0.136787	0.113829	0.027699	302629	37097.7	0.019525	0.004751	0.498575	0.028905	135218	0.004958	2.64206e+07	5.45546e+06	0.206486	868263	4.20496e+06	4.29367e+06	9.7854e+06	2.02054e+06	2.69779e+07	9.99182e+06
29.39871	149.7	147.31	1.000001	226	2216	582083.875	111004.625	42021933.875	39986.625	41825.625	0.000045	592574	0.190702	0.177537	0.175706	19991.2	19744.8	17411.2	1.863819	17413.1	0.881825	3517.08	3515.69	0.881129	1.128078	0.149012	0.105825	0.035702	305944	40413.2	0.018152	0.006124	0.519534	0.028935	140902	0.004963	2.75327e+07	5.55882e+06	0.201899	884714	4.38196e+06	4.47038e+06	1.01973e+07	2.05882e+06	2.80882e+07	1.0403e+07
31.0939	145.6125	143.919	1.000001	226	2216	584661.875	106748.875	42163282.125	40117.25	41964	0.000044	594327	0.182582	0.169454	0.167859	19932.2	19713.4	17381.7	1.863819	17383.6	0.881729	3351.58	3350.19	0.881129	1.117463	0.138396	0.101354	0.040173	303065	37534.3	0.017385	0.006891	0.519477	0.02906	140887	0.004985	2.74859e+07	5.29714e+06	0.192722	843066	4.37452e+06	4.45502e+06	1.018e+07	1.96191e+06	2.79917e+07	1.03673e+07
32.7798	141.3375	140.547	1.000001	226	2216	588811.625	104143.625	42266687.625	40213.125	42070.875	0.000044	597951	0.176871	0.163768	0.162327	19811.4	19611.9	17281.4	1.863819	17283.2	0.881181	3222.34	3220.96	0.881129	1.10971	0.130644	0.098083	0.043444	300963	35431.8	0.016824	0.007452	0.519155	0.029265	140799	0.00502	2.73273e+07	5.09281e+06	0.186363	810545	4.34928e+06	4.42416e+06	1.01212e+07	1.88623e+06	2.77978e+07	1.02955e+07
34.4776	137.6125	137.152	1.000001	226	2216	592985	102247.25	42343233.25	40274.5	42151.125	0.000044	601736	0.172428	0.159344	0.158016	19686.8	19501.8	17172.3	1.863819	17174.1	0.880559	3117.64	3116.26	0.881129	1.103979	0.124912	0.095662	0.045865	299408	33877.3	0.016409	0.007867	0.518788	0.029471	140700	0.005055	2.71548e+07	4.92726e+06	0.18145	784196	4.32182e+06	4.39239e+06	1.00573e+07	1.82491e+06	2.75982e+07	1.02216e+07
36.178	134.1125	133.751	1.000001	226	2216	596689.75	100978.75	42401889.75	40334.875	42213.75	0.000044	605174	0.169232	0.156161	0.15491	19575	19400.3	17071.4	1.863819	17073.3	0.87997	3039.39	3038.01	0.881129	1.099591	0.120524	0.093807	0.04772	298218	32687.3	0.01609	0.008185	0.518441	0.029654	140606	0.005087	2.69954e+07	4.80353e+06	0.177939	764505	4.29645e+06	4.36393e+06	9.99829e+06	1.77909e+06	2.74194e+07	1.01553e+07
37.8833	130.825	130.34	1.000001	226	2216	599679.25	100074.75	42448651.75	40373.625	42262.375	0.000044	607972	0.16688	0.153819	0.152623	19484.9	19317.6	16989.3	1.863819	16991.2	0.879485	2981.01	2979.63	0.881129	1.096095	0.117029	0.092328	0.0492	297270	31739.2	0.015837	0.008439	0.518155	0.029803	140528	0.005112	2.68656e+07	4.71123e+06	0.175363	749815	4.27578e+06	4.34103e+06	9.95021e+06	1.7449e+06	2.72755e+07	1.0102e+07
39.5736	127.3	126.96	1.000001	226	2216	602161.25	99539.75	42488984.25	40410.5	42301.125	0.000044	610333	0.165304	0.152249	0.151089	19409.5	19247.2	16919.4	1.863819	16921.3	0.879069	2939.8	2938.42	0.881129	1.093082	0.114015	0.091052	0.050475	296453	30921.9	0.015618	0.008658	0.51791	0.029926	140462	0.005133	2.6755e+07	4.64606e+06	0.173652	739444	4.25819e+06	4.32192e+06	9.90926e+06	1.72076e+06	2.71554e+07	1.00576e+07
41.2729	123.9875	123.561	1.000001	226	2216	604555.75	99218.25	42524109.75	40432	42343.625	0.000044	612643	0.164118	0.151068	0.149934	19336.3	19177.8	16850.4	1.863819	16852.3	0.878652	2906.42	2905.04	0.881129	1.090459	0.111392	0.089941	0.051586	295742	30210.6	0.015427	0.008848	0.517665	0.030045	140395	0.005153	2.66459e+07	4.59329e+06	0.172383	731045	4.24082e+06	4.30337e+06	9.86885e+06	1.70122e+06	2.70389e+07	1.00144e+07
42.9658	120.55	120.175	1.000001	226	2216	606371.5	99109.75	42556033	40454.5	42378.75	0.000044	614418	0.163447	0.1504	0.149281	19280.5	19124.2	16797.1	1.863819	16799	0.878331	2885.45	2884.07	0.881129	1.088076	0.10901	0.088931	0.052596	295095	29564.3	0.015254	0.009022	0.517475	0.030135	140344	0.005169	2.65617e+07	4.56014e+06	0.171681	725768	4.22742e+06	4.28926e+06	9.83765e+06	1.68894e+06	2.69503e+07	9.98158e+06
44.69089	117.3	116.725	1.000001	221	2212	606451.75	99443.5	42548092	40453.875	42365.75	0.000044	614551	0.163976	0.150927	0.149796	18849.8	18694.3	16367.1	1.863819	16369	0.875529	2830.26	2828.89	0.860274	1.067814	0.088747	0.089183	0.052345	289600	24069	0.015297	0.008979	0.504412	0.030141	136801	0.00517	2.58818e+07	4.47288e+06	0.17282	711881	4.11921e+06	4.18027e+06	9.58585e+06	1.65662e+06	2.62655e+07	9.72794e+06
46.429	113.6	113.249	1.000001	216	2209	601403.5	99063.25	42549123.5	40465.375	42366.25	0.000044	609508	0.16472	0.151668	0.150521	18575.8	18419.7	16092.6	1.863819	16094.4	0.873674	2802.26	2800.88	0.844633	1.052095	0.073029	0.08915	0.052378	285337	19806	0.015292	0.008984	0.491956	0.029892	133423	0.005127	2.54476e+07	4.4286e+06	0.174028	704833	4.05011e+06	4.11098e+06	9.42504e+06	1.64022e+06	2.58301e+07	9.5667e+06
48.1208	110.25	109.865	1.000001	216	2209	601847.625	99712.375	42572169.625	40487.25	42388	0.000044	610052	0.165677	0.152621	0.151452	18559.2	18400.6	16073.7	1.863819	16075.6	0.873557	2816.94	2815.56	0.844633	1.050375	0.071309	0.088421	0.053107	284871	19339.6	0.015167	0.009109	0.49189	0.029914	133405	0.005131	2.54178e+07	4.45181e+06	0.175145	708527	4.04537e+06	4.10695e+06	9.41401e+06	1.64882e+06	2.58047e+07	9.55731e+06
49.8246	106.9	106.458	1.000001	216	2209	602329.375	99580.375	42596521.375	40505.375	42412.75	0.000044	610505	0.165325	0.152271	0.15111	18545.4	18387.8	16061.2	1.863819	16063.1	0.873485	2808.52	2807.14	0.844633	1.048559	0.069492	0.087651	0.053877	284378	18846.9	0.015034	0.009241	0.491849	0.029938	133394	0.005135	2.53981e+07	4.4385e+06	0.174757	706409	4.04223e+06	4.10349e+06	9.40671e+06	1.64389e+06	2.5783e+07	9.54927e+06
51.5203	103.5125	103.066	1.000001	216	2209	601924.875	99885.125	42620509.625	40521.375	42429.125	0.000044	610156	0.165943	0.152886	0.151711	18556.1	18396.7	16070.4	1.863819	16072.2	0.87356	2821.22	2819.85	0.844633	1.04677	0.067703	0.086892	0.054636	283893	18361.7	0.014904	0.009371	0.491892	0.029918	133405	0.005132	2.54125e+07	4.45859e+06	0.175448	709606	4.04453e+06	4.10631e+06	9.41205e+06	1.65133e+06	2.58007e+07	9.55582e+06
53.2023	100.05	99.7024	1.000001	216	2209	601315.875	100431.375	42643924.375	40556.625	42451.625	0.000044	609645	0.167019	0.153958	0.152758	18571.6	18409.2	16083.1	1.863819	16085	0.87366	2842.94	2841.57	0.844633	1.045024	0.065958	0.086151	0.055376	283419	17888.3	0.014777	0.009498	0.491948	0.029888	133421	0.005127	2.54327e+07	4.49293e+06	0.17666	715072	4.04774e+06	4.11041e+06	9.41952e+06	1.66405e+06	2.58265e+07	9.56537e+06
54.8938	96.7	96.3193	1.000001	216	2209	600457.375	101271.125	42667399.875	40580.75	42474	0.000044	608938	0.168657	0.155588	0.154351	18593.2	18426	16100.3	1.863819	16102.1	0.87379	2875.7	2874.32	0.844633	1.043274	0.064208	0.085409	0.056119	282945	17413.7	0.01465	0.009626	0.492021	0.029846	133440	0.005119	2.54598e+07	4.54472e+06	0.178506	723315	4.05205e+06	4.1161e+06	9.42955e+06	1.68323e+06	2.58622e+07	9.57861e+06
56.5895	93.3875	92.9278	1.000001	216	2209	598994	101888.5	42690051.25	40598.375	42497	0.000044	607598	0.170099	0.157025	0.155753	18634.2	18462.7	16137.2	1.863819	16139	0.874055	2908.05	2906.67	0.844633	1.041587	0.06252	0.084692	0.056835	282487	16956	0.014527	0.009749	0.49217	0.029774	133481	0.005107	2.55182e+07	4.59588e+06	0.180102	731456	4.06134e+06	4.12668e+06	9.45117e+06	1.70218e+06	2.59287e+07	9.60323e+06
58.286	89.925	89.53484	1.000001	216	2209	597285.875	103066.625	42712240.875	40611.125	42513	0.000044	606113	0.172558	0.159474	0.158142	18679.8	18501	16175.7	1.863819	16177.6	0.874329	2959.55	2958.17	0.844633	1.039934	0.060867	0.08399	0.057537	282039	16507.7	0.014407	0.009869	0.492324	0.02969	133523	0.005093	2.55791e+07	4.6773e+06	0.182856	744416	4.07104e+06	4.13854e+06	9.47374e+06	1.73234e+06	2.60032e+07	9.63083e+06
59.96851	86.5625	86.1699	1.000001	216	2209	595091.125	104020.375	42733440.375	40637.875	42531.75	0.000044	604114	0.174797	0.161703	0.160316	18741.6	18555.9	16230.8	1.863819	16232.7	0.874713	3009.86	3008.49	0.844633	1.038355	0.059289	0.08332	0.058208	281611	16079.5	0.014292	0.009984	0.492541	0.029581	133581	0.005074	2.56662e+07	4.75685e+06	0.185335	757076	4.0849e+06	4.15447e+06	9.50601e+06	1.7618e+06	2.61033e+07	9.66789e+06
61.6648	83.4625	82.7774	1.000001	216	2209	592760.625	104941.375	42754102.375	40662	42549.625	0.000044	601978	0.177038	0.163935	0.162489	18808.1	18615.2	16290.4	1.863819	16292.3	0.875125	3061.2	3059.82	0.844633	1.036817	0.05775	0.082666	0.058861	281193	15662.3	0.014179	0.010096	0.492773	0.029466	133644	0.005054	2.57605e+07	4.83802e+06	0.187808	769994	4.0999e+06	4.17158e+06	9.54092e+06	1.79186e+06	2.62108e+07	9.70772e+06
63.3626	80.65	79.3818	1.000001	216	2209	590061.25	105699.5	42773291.25	40688	42569.25	0.000044	599454	0.179133	0.16602	0.16452	18887.4	18687.5	16362.9	1.863819	16364.8	0.875619	3112.23	3110.85	0.844633	1.035388	0.056322	0.082059	0.059468	280806	15275	0.014075	0.0102	0.493051	0.029332	133720	0.005031	2.58751e+07	4.91871e+06	0.190094	782837	4.11815e+06	4.1919e+06	9.58339e+06	1.82174e+06	2.63385e+07	9.755e+06
65.0653	77.9	75.97634	1.000001	216	2209	587191.75	106496.25	42791831.5	40716.375	42582.75	0.000044	596771	0.181365	0.168243	0.166682	18972.3	18765	16440.6	1.863819	16442.4	0.876143	3167	3165.63	0.844633	1.034009	0.054942	0.081473	0.060055	280432	14900.8	0.013975	0.010301	0.493346	0.02919	133800	0.005007	2.59979e+07	5.00532e+06	0.192528	796620	4.13768e+06	4.21367e+06	9.62884e+06	1.85382e+06	2.64753e+07	9.80567e+06
66.767	75.4	72.5729	1.000001	216	2209	584339.375	107126.875	42807523.125	40721	42589.25	0.000044	594078	0.18333	0.170198	0.168583	19058.3	18844.2	16519.9	1.863819	16521.8	0.876672	3217.39	3216.01	0.844633	1.032841	0.053775	0.080977	0.060551	280115	14584.2	0.01389	0.010386	0.493644	0.029049	133881	0.004983	2.61234e+07	5.08498e+06	0.194653	809300	4.15766e+06	4.23569e+06	9.67531e+06	1.88333e+06	2.66137e+07	9.85691e+06
68.4482	72.9	69.2106	1.000001	216	2209	581790.625	107569.625	42823112.875	40744.625	42606.875	0.000044	591652	0.184894	0.171755	0.170096	19136.4	18916.7	16592.7	1.863819	16594.5	0.877154	3259.37	3258	0.844633	1.031682	0.052615	0.080483	0.061044	279801	14269.7	0.013805	0.010471	0.493916	0.028922	133954	0.004961	2.62384e+07	5.15137e+06	0.19633	819865	4.17596e+06	4.25568e+06	9.71791e+06	1.90791e+06	2.67393e+07	9.90343e+06
70.2086	70.6	65.6897	1.000001	224	2215	583350.25	108417.25	42890902.75	40802.625	42671.25	0.000044	593340	0.185853	0.17271	0.171023	19788.7	19560.4	17237	1.863819	17238.9	0.881233	3389.37	3388	0.875915	1.057924	0.078858	0.078339	0.063188	286918	21386.9	0.013437	0.010838	0.514591	0.028997	139561	0.004974	2.72572e+07	5.35692e+06	0.196532	852579	4.33812e+06	4.4211e+06	1.00953e+07	1.98404e+06	2.77786e+07	1.02884e+07
71.9355	68.3125	62.2358	1.000001	228	2218	582533.125	109023.625	42933968.125	40849.875	42709.875	0.000044	592647	0.187154	0.174005	0.17228	20165.6	19929.7	17606.8	1.863819	17608.7	0.883457	3479.5	3478.12	0.891557	1.070366	0.091299	0.076977	0.06455	290292	24761.1	0.013204	0.011072	0.525101	0.028955	142412	0.004967	2.78419e+07	5.49941e+06	0.197523	875258	4.43117e+06	4.51679e+06	1.03118e+07	2.03682e+06	2.83798e+07	1.05111e+07
73.6521	66.3125	58.8028	1.000001	232	2221	582243.875	110038.125	42977571.875	40889	42752.75	0.000044	592551	0.18899	0.175832	0.174053	20522.7	20277.4	17955	1.863819	17956.9	0.885478	3577.59	3576.22	0.907198	1.082769	0.103702	0.075598	0.06593	293656	28125	0.012967	0.011309	0.535536	0.02894	145242	0.004964	2.83924e+07	5.65452e+06	0.199156	899944	4.51879e+06	4.60754e+06	1.05157e+07	2.09427e+06	2.895e+07	1.07222e+07
75.3686	64.3	55.3698	1.000001	236	2224	581585.875	110789.125	43020833.875	40923.75	42792.75	0.000044	592044	0.190495	0.17733	0.175506	20894.4	20640.6	18318.6	1.863819	18320.4	0.887514	3672.91	3671.54	0.92284	1.095199	0.116133	0.074229	0.067298	297027	31496.2	0.012732	0.011543	0.546022	0.028906	148086	0.004958	2.89673e+07	5.80524e+06	0.200407	923931	4.61028e+06	4.70195e+06	1.07286e+07	2.15009e+06	2.95433e+07	1.09419e+07
77.095	62.45	51.9169	1.000001	240	2227	581555.375	111704.875	43063174.625	40962.75	42831.5	0.000044	592186	0.19208	0.178908	0.177035	21243.5	20980.7	18659.2	1.863819	18661	0.889358	3766.87	3765.5	0.938481	1.107699	0.128633	0.07289	0.068637	300417	34886.3	0.012503	0.011773	0.55643	0.028903	150909	0.004958	2.95058e+07	5.9538e+06	0.201784	947576	4.69599e+06	4.79064e+06	1.09281e+07	2.20511e+06	3.01005e+07	1.11483e+07
78.8154	60.875	48.4761	1.000001	244	2230	581563	112012	43104100	41010.625	42877.75	0.000044	592252	0.192605	0.179431	0.177542	21595.2	21327.3	19006.1	1.863819	19008	0.891175	3840.51	3839.14	0.954122	1.120306	0.141239	0.071596	0.069932	303836	38305.3	0.012281	0.011995	0.56686	0.028902	153737	0.004957	3.00544e+07	6.07023e+06	0.201975	966107	4.7833e+06	4.87989e+06	1.11313e+07	2.24824e+06	3.06613e+07	1.1356e+07
80.5397	59.2	45.02746	1.000001	248	2233	581670.875	112330.375	43143151.125	41047.875	42917	0.000044	592418	0.193117	0.17994	0.178035	21943	21670	19349.3	1.863819	19351.2	0.892914	3913.54	3912.17	0.969764	1.133053	0.153986	0.07036	0.071167	307294	41762.4	0.012069	0.012207	0.577277	0.028906	156562	0.004958	3.0597e+07	6.1857e+06	0.202167	984484	4.86966e+06	4.96818e+06	1.13322e+07	2.291e+06	3.1216e+07	1.15615e+07
82.2355	57.6875	41.636	1.000001	248	2233	580543.375	112814.875	43160354.375	41068.25	42931	0.000044	591403	0.194326	0.181144	0.179201	21980.7	21702.7	19382.2	1.863819	19384	0.893083	3945.69	3944.32	0.969764	1.131778	0.152711	0.069816	0.071711	306948	41416.6	0.011975	0.0123	0.577387	0.02885	156592	0.004949	3.0649e+07	6.23654e+06	0.203483	992576	4.87793e+06	4.97789e+06	1.13515e+07	2.30983e+06	3.1277e+07	1.15841e+07
83.9572	61.4125	41.2917	1.000001	253	2236	585349.75	113456.5	43151528	41040.875	42925.625	0.000044	596244	0.193827	0.180647	0.178719	22241.8	21963.4	19642.7	1.863819	19644.6	0.894348	3982.29	3980.92	0.985405	1.148073	0.169007	0.070095	0.071432	311367	45836.1	0.012023	0.012252	0.589862	0.029088	159975	0.004989	3.10609e+07	6.29441e+06	0.202647	1.00179e+06	4.94349e+06	5.04398e+06	1.1504e+07	2.33126e+06	3.16923e+07	1.17379e+07
85.6667	64.6375	44.7107	1.000001	253	2236	583974.75	112952.25	43128623	41023.125	42904	0.000044	594798	0.19342	0.180242	0.178327	22295.8	22018.5	19697.6	1.863819	19699.5	0.894602	3983.37	3982	0.985405	1.149771	0.170704	0.07082	0.070707	311828	46296.4	0.012148	0.012128	0.590029	0.029019	160021	0.004978	3.11478e+07	6.29612e+06	0.202137	1.00206e+06	4.95732e+06	5.05758e+06	1.15362e+07	2.3319e+06	3.17777e+07	1.17695e+07
87.3666	65.1	48.1105	1.000001	253	2236	584678.375	112727.125	43119336.375	41012.375	42897	0.000044	595446	0.192802	0.179627	0.177731	22271.6	21996.8	19675.9	1.863819	19677.7	0.894494	3965.86	3964.48	0.985405	1.150459	0.171393	0.071114	0.070414	312014	46483.1	0.012198	0.012078	0.589958	0.029054	160002	0.004984	3.11133e+07	6.26843e+06	0.201471	997650	4.95184e+06	5.05134e+06	1.15235e+07	2.32164e+06	3.17385e+07	1.1755e+07
89.0495	67.875	51.4764	1.000001	253	2236	584580	112405	43095252.25	40984.875	42872.375	0.000044	595289	0.192283	0.179111	0.177231	22277.5	22004.7	19683.5	1.863819	19685.3	0.894521	3955.88	3954.5	0.985405	1.152244	0.173178	0.071876	0.069652	312498	46967.4	0.012329	0.011947	0.589976	0.029049	160006	0.004983	3.11254e+07	6.25264e+06	0.200886	995138	4.95375e+06	5.05272e+06	1.15279e+07	2.31579e+06	3.17472e+07	1.17582e+07
90.7487	71.1625	54.8746	1.000001	253	2236	585337.25	111892.75	43069055.5	40968	42847.375	0.000044	595936	0.191159	0.177992	0.176147	22253.3	21985	19663.5	1.863819	19665.4	0.894415	3927.64	3926.26	0.985405	1.154187	0.175121	0.072704	0.068823	313025	47494.2	0.012471	0.011805	0.589905	0.029086	159987	0.004989	3.10938e+07	6.20799e+06	0.199653	988031	4.94873e+06	5.0464e+06	1.15162e+07	2.29925e+06	3.17075e+07	1.17435e+07
92.454	74.45	58.2853	1.000001	253	2236	585780	111836.75	43043851	40945.5	42824.75	0.000044	596360	0.190919	0.177753	0.175916	22237.4	21970.2	19648.5	1.863819	19650.3	0.894332	3919.71	3918.34	0.985405	1.156057	0.17699	0.073501	0.068026	313532	48001.3	0.012607	0.011668	0.589851	0.029108	159973	0.004993	3.107e+07	6.19546e+06	0.199403	986038	4.94495e+06	5.0423e+06	1.15074e+07	2.29462e+06	3.16817e+07	1.1734e+07
94.1539	77.825	61.6851	1.000001	253	2236	586710.25	111612.75	43020723.25	40927.375	42802.125	0.000044	597232	0.190235	0.177072	0.175255	22205	21940.6	19618.6	1.863819	19620.5	0.894179	3899.41	3898.03	0.985405	1.157773	0.178706	0.074233	0.067295	313998	48466.7	0.012733	0.011543	0.58975	0.029154	159945	0.005001	3.10229e+07	6.16336e+06	0.198671	980928	4.93744e+06	5.03394e+06	1.149e+07	2.28273e+06	3.16292e+07	1.17145e+07
95.8441	81.35	65.0656	1.000001	253	2236	588128	111163	42998028.25	40904.5	42778.875	0.000044	598541	0.189012	0.175854	0.174074	22156.4	21897.1	19574.9	1.863819	19576.7	0.893958	3864.88	3863.5	0.985405	1.159457	0.180391	0.074951	0.066577	314455	48923.5	0.012856	0.01142	0.589604	0.029224	159906	0.005013	3.09537e+07	6.10876e+06	0.197352	972238	4.92643e+06	5.02145e+06	1.14643e+07	2.2625e+06	3.15507e+07	1.16854e+07
97.537	84.6375	68.4513	1.000001	253	2236	589823.75	110931.25	42976614	40882.625	42767.75	0.000044	600165	0.188075	0.174922	0.17317	22096.5	21841.2	19518.7	1.863819	19520.6	0.893676	3834.53	3833.16	0.985405	1.161047	0.18198	0.075628	0.065899	314886	49354.6	0.012972	0.011303	0.589418	0.029309	159855	0.005027	3.08649e+07	6.06078e+06	0.196365	964602	4.91229e+06	5.0061e+06	1.14314e+07	2.24473e+06	3.14543e+07	1.16497e+07
99.2322	88.05	71.8417	1.000001	253	2236	591805.375	110704.625	42956737.625	40844.875	42748.75	0.000044	602071	0.187063	0.173914	0.172192	22026.5	21775.5	19452.9	1.863819	19454.7	0.893346	3800.93	3799.56	0.985405	1.162523	0.183456	0.076257	0.065271	315286	49754.9	0.01308	0.011196	0.589201	0.029407	159796	0.005044	3.07608e+07	6.00765e+06	0.195302	956147	4.89573e+06	4.98822e+06	1.13929e+07	2.22506e+06	3.1342e+07	1.16081e+07
100.925	91.375	75.2274	1.000001	253	2236	593856.875	110418.625	42936943.625	40833.75	42735.125	0.000044	604035	0.185935	0.172791	0.171102	21954.9	21708.6	19385.8	1.863819	19387.6	0.893008	3764.75	3763.37	0.985405	1.163993	0.184926	0.076883	0.064645	315685	50153.6	0.013187	0.011088	0.588977	0.029509	159736	0.005062	3.06547e+07	5.95044e+06	0.194112	947040	4.87884e+06	4.9699e+06	1.13536e+07	2.20386e+06	3.12269e+07	1.15655e+07
102.621	94.825	78.6189	1.000001	253	2236	596060.625	110107.625	42918466.875	40818.625	42714.25	0.000044	606145	0.184726	0.171588	0.169933	21878.5	21637.2	19314.1	1.863819	19316	0.892646	3726.17	3724.79	0.985405	1.165365	0.186299	0.077467	0.06406	316057	50525.8	0.013288	0.010988	0.588739	0.029618	159671	0.00508	3.05414e+07	5.88944e+06	0.192834	937332	4.86081e+06	4.95036e+06	1.13116e+07	2.18127e+06	3.11041e+07	1.152e+07
104.306	98.2125	81.9901	1.000001	253	2236	598192.125	109903.125	42898957.625	40789	42698.625	0.000044	608204	0.183725	0.170592	0.168966	21804.4	21567.3	19244	1.863819	19245.9	0.892288	3692.53	3691.16	0.985405	1.166815	0.187748	0.078084	0.063443	316450	50919	0.013394	0.010882	0.588503	0.029724	159607	0.005098	3.04306e+07	5.83626e+06	0.191789	928868	4.84317e+06	4.93144e+06	1.12706e+07	2.16158e+06	3.09852e+07	1.1476e+07
105.99	101.575	85.3576	1.000001	253	2236	600128.625	109727.625	42880177.375	40778.125	42678.625	0.000044	610077	0.18284	0.169711	0.168109	21737.4	21504	19180.6	1.863819	19182.4	0.891962	3662.64	3661.26	0.985405	1.168211	0.189144	0.078678	0.062849	316829	51297.5	0.013495	0.01078	0.588288	0.02982	159549	0.005115	3.03302e+07	5.78899e+06	0.190865	921345	4.8272e+06	4.91434e+06	1.12334e+07	2.14407e+06	3.08777e+07	1.14362e+07
107.674	104.85	88.7256	1.000001	253	2236	602520.625	109398.125	42861296.875	40753.375	42668.75	0.000044	612372	0.181567	0.168444	0.166877	21656	21427.7	19104	1.863819	19105.9	0.891568	3622.34	3620.96	0.985405	1.169614	0.190548	0.079276	0.062252	317209	51678.2	0.013598	0.010678	0.588028	0.029939	159478	0.005135	3.02092e+07	5.72527e+06	0.189521	911204	4.80794e+06	4.89352e+06	1.11886e+07	2.12047e+06	3.07469e+07	1.13878e+07
109.373	108.3375	92.1233	1.000001	253	2236	604745.25	109068.25	42843310.25	40732.125	42651.875	0.000044	614502	0.180354	0.167236	0.165702	21580.9	21357.4	19033.6	1.863819	19035.4	0.891202	3584.52	3583.14	0.985405	1.170952	0.191885	0.079845	0.061683	317572	52040.9	0.013695	0.01058	0.587786	0.030049	159413	0.005154	3.00978e+07	5.66546e+06	0.188235	901686	4.79021e+06	4.87433e+06	1.11473e+07	2.09832e+06	3.06264e+07	1.13431e+07
111.107	111.8	95.5912	1.000001	248	2233	601611.375	108254.875	42799751.375	40698.25	42610.125	0.000044	611274	0.179942	0.166825	0.165303	21266.2	21046.3	18722	1.863819	18723.8	0.889571	3523.44	3522.06	0.969764	1.15855	0.179484	0.081222	0.060305	314209	48677.5	0.013932	0.010344	0.575116	0.029895	155976	0.005128	2.96051e+07	5.56889e+06	0.188106	886316	4.71179e+06	4.79443e+06	1.09648e+07	2.06255e+06	3.01243e+07	1.11571e+07
112.811	115.2	98.9988	1.000001	248	2233	602719.75	107697.75	42779317.5	40674	42589.75	0.000044	612266	0.178686	0.165575	0.164087	21231.7	21016.3	18691.8	1.863819	18693.7	0.889403	3492.04	3490.67	0.969764	1.160071	0.181004	0.081869	0.059659	314621	49089.9	0.014043	0.010233	0.575007	0.02995	155947	0.005137	2.95574e+07	5.51925e+06	0.18673	878416	4.7042e+06	4.78551e+06	1.09472e+07	2.04417e+06	3.00683e+07	1.11364e+07
114.5	118.525	102.377	1.000001	248	2233	603924.875	107461.375	42759667.375	40651.375	42570.375	0.000044	613411	0.177938	0.164831	0.163362	21192	20979.5	18654.8	1.863819	18656.6	0.889199	3470.22	3468.85	0.969764	1.161533	0.182467	0.08249	0.059037	315018	49486.5	0.014149	0.010126	0.574875	0.03001	155911	0.005147	2.94988e+07	5.48475e+06	0.185931	872925	4.69488e+06	4.77534e+06	1.09255e+07	2.03139e+06	3.00044e+07	1.11127e+07
116.194	122	105.766	1.000001	248	2233	605108	107546	42740714.25	40631.875	42553	0.000044	614591	0.17773	0.164623	0.16316	21151.4	20939.8	18614.8	1.863819	18616.7	0.888979	3459.28	3457.9	0.969764	1.162944	0.183878	0.08309	0.058438	315400	49869.2	0.014252	0.010024	0.574733	0.030069	155873	0.005158	2.94357e+07	5.46745e+06	0.185742	870171	4.68484e+06	4.76497e+06	1.09021e+07	2.02498e+06	2.99392e+07	1.10886e+07
117.923	125.5	109.224	1.000001	242	2228	605247.75	108203.75	42681419.5	40587.5	42501	0.000044	614844	0.178776	0.165665	0.164174	20631.2	20419.7	18094.1	1.863819	18095.9	0.886119	3394.4	3393.02	0.943695	1.141292	0.162225	0.084965	0.056562	309528	43996.8	0.014574	0.009702	0.559024	0.030078	151612	0.005159	2.86123e+07	5.36486e+06	0.187502	853843	4553782.45	4.63314e+06	1.05971e+07	1.98698e+06	2.91109e+07	1.07818e+07
119.62	128.825	112.617	1.000001	242	2228	605428.125	107591.375	42659463.875	40563.25	42476.875	0.000044	614914	0.177711	0.164604	0.163142	20628.8	20420.9	18095	1.863819	18096.9	0.886114	3372.87	3371.49	0.943695	1.142928	0.163861	0.08566	0.055868	309972	44440.6	0.014693	0.009583	0.559021	0.030087	151611	0.005161	2.86138e+07	5.33081e+06	0.186303	848425	4.55402e+06	4.63237e+06	1.05977e+07	1.97438e+06	2.91061e+07	1.078e+07
121.315	132.175	116.007	1.000001	242	2228	605009.625	107487.875	42641835.375	40541.5	42458.875	0.000044	614484	0.177663	0.164557	0.163095	20643.2	20435.4	18109.3	1.863819	18111.2	0.886185	3374.29	3372.91	0.943695	1.144242	0.165175	0.086217	0.05531	310328	44796.9	0.014789	0.009487	0.559065	0.030066	151623	0.005157	2.86364e+07	5.33306e+06	0.186234	848782	4.55762e+06	4.63598e+06	1.06061e+07	1.97521e+06	2.91287e+07	1.07884e+07
123.011	135.6375	119.399	1.000001	242	2228	604289.5	107528.5	42627464.5	40529	42442	0.000044	613782	0.177942	0.164834	0.163365	20666.8	20457.9	18131.7	1.863819	18133.5	0.886302	3383.72	3382.34	0.943695	1.145313	0.166247	0.086672	0.054856	310619	45087.5	0.014867	0.009409	0.55914	0.03003	151643	0.005151	2.86717e+07	5.34798e+06	0.186524	851156	4.56324e+06	4.64195e+06	1.06192e+07	1.98073e+06	2.91662e+07	1.08023e+07
124.695	138.975	122.767	1.000001	242	2228	602644.625	107507.875	42617276.375	40523.875	42430.875	0.000044	612159	0.178393	0.165284	0.163803	20721.6	20510.8	18184.5	1.863819	18186.3	0.88659	3401.76	3400.38	0.943695	1.146073	0.167006	0.086994	0.054533	310825	45293.5	0.014922	0.009354	0.559321	0.029948	151693	0.005137	2.87552e+07	5.37649e+06	0.186975	855695	4.57653e+06	4.65584e+06	1.06501e+07	1.99129e+06	2.92535e+07	1.08346e+07
126.404	142.4375	126.185	1.000001	242	2228	599761.875	107585.625	42613536.875	40527	42422.125	0.000044	609335	0.179381	0.166267	0.164759	20817.7	20602.9	18276.5	1.863819	18278.3	0.887095	3437.4	3436.02	0.943695	1.146352	0.167285	0.087112	0.054415	310900	45369.2	0.014942	0.009334	0.559639	0.029805	151779	0.005112	2.89007e+07	5.43285e+06	0.187983	864664	4.59969e+06	4.68026e+06	1.0704e+07	2.01217e+06	2.94069e+07	1.08915e+07
128.103	145.775	129.584	1.000001	242	2228	595568.5	107686	42619483.75	40537.125	42423.375	0.000044	605226	0.180812	0.167692	0.166146	20959	20738.4	18412	1.863819	18413.9	0.887836	3489.75	3488.37	0.943695	1.145908	0.166842	0.086924	0.054603	310780	45248.9	0.01491	0.009366	0.560107	0.029597	151906	0.005077	2.91151e+07	5.51562e+06	0.189442	877838	4.6338e+06	4.71622e+06	1.07834e+07	2.04282e+06	2.96329e+07	1.09752e+07
129.803	149.2	132.984	1.000001	242	2228	589098.5	107422.25	42640314	40574.25	42432	0.000044	598813	0.18235	0.169223	0.167635	21183.5	20955.9	18629.8	1.863819	18631.7	0.889011	3558.69	3557.31	0.943695	1.144355	0.165289	0.086265	0.055262	310359	44827.7	0.014797	0.009479	0.560848	0.029275	152107	0.005021	2.94594e+07	5.62463e+06	0.190928	895187	4.6886e+06	4.7733e+06	1.09109e+07	2.0832e+06	2.99915e+07	1.1108e+07
131.507	149.5125	147.108	1.000001	242	2228	585328.625	104300.125	42692965.375	40622.875	42474.5	0.000044	594549	0.178191	0.165082	0.163606	21335.4	21121	18795.6	1.863819	18797.4	0.889907	3499.04	3497.67	0.943695	1.140431	0.161365	0.0846	0.056927	309295	43763.5	0.014511	0.009765	0.561413	0.029085	152260	0.004989	2.97215e+07	5.53032e+06	0.186072	880177	4.73031e+06	4.8115e+06	1.10079e+07	2.04827e+06	3.02316e+07	1.11969e+07
133.219	144.95	143.683	1.000001	242	2228	587243.25	101335	42775553.75	40707.375	42557.25	0.000044	595922	0.172561	0.159476	0.158144	21286.2	21091.1	18766.5	1.863819	18768.4	0.889793	3375.39	3374.01	0.943695	1.134282	0.155215	0.081988	0.05954	307627	42095.7	0.014063	0.010213	0.561342	0.029178	152241	0.005005	2.96755e+07	5.3348e+06	0.179771	849059	4.723e+06	4.79871e+06	1.09909e+07	1.97585e+06	3.01512e+07	1.11671e+07
134.907	140.8375	140.308	1.000001	242	2228	589657.75	99318.5	42845918.25	40767.5	42628	0.000044	597964	0.168434	0.155367	0.154134	21213.6	21032.2	18708.4	1.863819	18710.3	0.889521	3279.19	3277.82	0.943695	1.129047	0.149981	0.079762	0.061765	306207	40676.1	0.013681	0.010594	0.56117	0.029297	152194	0.005025	2.95837e+07	5.18271e+06	0.175188	824853	4.70839e+06	4.78009e+06	1.09569e+07	1.91952e+06	3.00342e+07	1.11238e+07
136.598	137.1	136.925	1.000001	242	2228	591832.25	97662.75	42902413.5	40812	42687.625	0.000044	599836	0.165018	0.151964	0.15081	21147.3	20977.2	18654	1.863819	18655.8	0.88926	3198.94	3197.56	0.943695	1.124848	0.145781	0.077975	0.063552	305068	39537.2	0.013375	0.010901	0.561005	0.029404	152149	0.005044	2.94976e+07	5.05582e+06	0.171398	804657	4.69468e+06	4.76314e+06	1.0925e+07	1.87252e+06	2.99277e+07	1.10843e+07
138.306	133.65	133.509	1.000001	242	2228	593586.375	96501.125	42948958.125	40851.25	42730.875	0.000044	601379	0.162573	0.149529	0.148429	21093.1	20930.8	18608	1.863819	18609.9	0.889038	3140.69	3139.31	0.943695	1.12139	0.142324	0.076503	0.065025	304131	38599.4	0.013122	0.011153	0.560865	0.02949	152111	0.005058	2.9425e+07	4.96371e+06	0.16869	789998	4.68313e+06	4.74929e+06	1.08981e+07	1.83841e+06	2.98407e+07	1.10521e+07
139.999	130.4	130.123	1.000001	242	2228	594951	95694.75	42987287.5	40881.75	42769.75	0.000044	602598	0.160845	0.147808	0.146745	21050.4	20893.6	18571.3	1.863819	18573.1	0.88886	3098.99	3097.62	0.943695	1.118544	0.139478	0.075291	0.066237	303359	37827.5	0.012914	0.011361	0.560753	0.029558	152081	0.00507	2.93668e+07	4.89778e+06	0.16678	779506	4.67387e+06	4.73843e+06	1.08766e+07	1.81399e+06	2.97724e+07	1.10268e+07
141.698	126.8875	126.725	1.000001	242	2228	596258	95148.25	43021411.25	40919.375	42805.875	0.000044	603802	0.159576	0.146544	0.145508	21008.4	20855.6	18533.6	1.863819	18535.5	0.888674	3066.88	3065.51	0.943695	1.116011	0.136945	0.074211	0.067316	302672	37140.6	0.012729	0.011547	0.560636	0.029622	152049	0.005081	2.93073e+07	4.84701e+06	0.165386	771425	4.6644e+06	4.72777e+06	1.08546e+07	1.79519e+06	2.97054e+07	1.1002e+07
143.398	123.5	123.324	1.000001	242	2228	597172.625	94827.625	43052123.125	40953	42840.75	0.000044	604655	0.158794	0.145765	0.144746	20978.8	20828.5	18506.8	1.863819	18508.7	0.888544	3046.6	3045.23	0.943695	1.113733	0.134666	0.07324	0.068288	302054	36522.7	0.012563	0.011713	0.560554	0.029668	152027	0.005089	2.92649e+07	4.81495e+06	0.16453	766322	4.65765e+06	4.72027e+06	1.08388e+07	1.78331e+06	2.96583e+07	1.09846e+07
145.094	120.1	119.934	1.000001	242	2228	598146.75	94779.5	43081420.5	40973	42873.375	0.000044	605609	0.158455	0.145428	0.144415	20945.7	20796.5	18475.2	1.863819	18477	0.888387	3034.87	3033.49	0.943695	1.11156	0.132493	0.072313	0.069214	301464	35933.3	0.012404	0.011872	0.560455	0.029716	152000	0.005097	2.92149e+07	4.79639e+06	0.164176	763369	4.64969e+06	4.71193e+06	1.08203e+07	1.77644e+06	2.9606e+07	1.09652e+07
146.798	116.8625	116.524	1.000001	242	2228	598776.25	94789.75	43107720.75	41001.625	42892.125	0.000044	606233	0.158306	0.145279	0.144269	20924.2	20775.5	18454.4	1.863819	18456.3	0.888287	3028.69	3027.31	0.943695	1.10961	0.130543	0.071481	0.070046	300936	35404.5	0.012261	0.012015	0.560392	0.029747	151983	0.005102	2.91821e+07	4.78662e+06	0.164026	761814	4.64447e+06	4.70653e+06	1.08082e+07	1.77282e+06	2.9572e+07	1.09526e+07
148.495	113.3	113.131	1.000001	242	2228	599240.625	95071.875	43134892.125	41025.25	42919.75	0.000044	606736	0.158654	0.145625	0.144609	20906.9	20757.2	18436.4	1.863819	18438.2	0.888202	3033.23	3031.86	0.943695	1.107596	0.128529	0.070622	0.070906	300389	34858.2	0.012113	0.012162	0.560338	0.029771	151968	0.005106	2.91535e+07	4.79381e+06	0.164433	762958	4.63993e+06	4.70224e+06	1.07976e+07	1.77548e+06	2.9545e+07	1.09426e+07
150.185	109.9375	109.751	1.000001	242	2228	599553.625	95442.625	43160428.875	41044.75	42951.375	0.000044	607103	0.159189	0.146159	0.145131	20894.2	20743	18422.4	1.863819	18424.3	0.888137	3042.26	3040.88	0.943695	1.105703	0.126637	0.069814	0.071714	299876	34345	0.011975	0.012301	0.560297	0.029786	151957	0.005109	2.91315e+07	4.80808e+06	0.165047	765228	4.63642e+06	4.69914e+06	1.07894e+07	1.78077e+06	2.95256e+07	1.09354e+07
151.893	106.5375	106.334	1.000001	242	2228	599724.25	96207	43186169.5	41062.25	42974.125	0.000044	607392	0.160419	0.147383	0.14633	20884.3	20729.4	18409.1	1.863819	18411	0.888076	3065.73	3064.36	0.943695	1.103797	0.12473	0.069	0.072528	299359	33827.9	0.011835	0.01244	0.560259	0.029795	151947	0.005111	2.91104e+07	4.84519e+06	0.166442	771136	4.63306e+06	4.6968e+06	1.07816e+07	1.79452e+06	2.95109e+07	1.093e+07
153.591	103.225	102.94	1.000001	242	2228	599227.5	96983.25	43210332	41095.75	42995.875	0.000044	607025	0.161847	0.148806	0.147722	20896.9	20737.7	18417.6	1.863819	18419.4	0.888132	3096.57	3095.19	0.943695	1.102007	0.122941	0.068235	0.073292	298874	33342.5	0.011704	0.012572	0.560294	0.029771	151956	0.005107	2.91238e+07	4.89395e+06	0.168039	778895	4.6352e+06	4.70018e+06	1.07866e+07	1.81257e+06	2.95322e+07	1.09378e+07
155.295	99.775	99.5324	1.000001	242	2228	598594.5	97843.25	43234063.25	41120	43015.75	0.000044	606538	0.163455	0.150408	0.149289	20913.7	20749.5	18429.6	1.863819	18431.5	0.888207	3131.68	3130.31	0.943695	1.10025	0.121184	0.067485	0.074043	298397	32866	0.011575	0.0127	0.560341	0.02974	151969	0.005101	2.91428e+07	4.94947e+06	0.169835	787732	4.63822e+06	4.70464e+06	1.07936e+07	1.83314e+06	2.95601e+07	1.09482e+07
157.001	96.3	96.11857	1.000001	242	2228	597895.125	98747.125	43257591.125	41134.125	43044	0.000044	605995	0.165158	0.152104	0.150947	20932.4	20762.9	18443.2	1.863819	18445.1	0.88829	3169.06	3167.68	0.943695	1.098508	0.119442	0.066741	0.074787	297925	32393.7	0.011448	0.012828	0.560393	0.029706	151983	0.005095	2.91644e+07	5.00857e+06	0.171736	797138	4.64165e+06	4.7096e+06	1.08016e+07	1.85502e+06	2.95913e+07	1.09598e+07
158.706	92.875	92.71	1.000001	242	2228	596784.75	99998	43280864.25	41159.125	43060.75	0.000044	605105	0.167561	0.154497	0.153285	20963.2	20786	18466.6	1.863819	18468.4	0.888425	3222.53	3221.16	0.943695	1.096786	0.11772	0.066005	0.075523	297458	31926.6	0.011322	0.012954	0.560479	0.029652	152007	0.005086	2.92013e+07	5.09312e+06	0.174414	810594	4.64752e+06	4.71768e+06	1.08153e+07	1.88634e+06	2.96421e+07	1.09786e+07
160.398	89.625	89.3253	1.000001	242	2228	595081.875	101280.125	43302453.125	41185.75	43078.5	0.000044	603639	0.170195	0.157121	0.155846	21014.1	20828.2	18509	1.863819	18510.9	0.888661	3283.94	3282.56	0.943695	1.095189	0.116122	0.065322	0.076206	297025	31493.4	0.011204	0.013071	0.560627	0.029568	152047	0.005072	2.92684e+07	5.19021e+06	0.177331	826046	4.65821e+06	4.73088e+06	1.08401e+07	1.9223e+06	2.9725e+07	1.10093e+07
162.098	86.2	85.9255	1.000001	242	2228	593401.375	102427.375	43323749.875	41207.375	43100.75	0.000044	602177	0.172611	0.159526	0.158193	21065.1	20871.1	18552.1	1.863819	18554	0.8889	3341.11	3339.74	0.943695	1.093613	0.114547	0.064648	0.076879	296597	31066.1	0.011089	0.013187	0.560778	0.029485	152088	0.005057	2.93366e+07	5.28061e+06	0.180001	840434	4.66906e+06	4.74409e+06	1.08654e+07	1.95578e+06	2.9808e+07	1.104e+07
163.798	83.15	82.5263	1.000001	242	2228	591345.25	103270.75	43343495	41225.125	43123	0.000044	600295	0.174637	0.161543	0.16016	21131.2	20930.1	18611.3	1.863819	18613.1	0.889221	3392.97	3391.59	0.943695	1.092153	0.113087	0.064023	0.077504	296201	30670.1	0.010982	0.013294	0.560981	0.029384	152143	0.00504	2.94301e+07	5.3626e+06	0.182215	853484	4.68394e+06	4.76106e+06	1.09e+07	1.98615e+06	2.99147e+07	1.10795e+07
165.486	80.35	79.1489	1.000001	242	2228	588958.375	104492.125	43362188.875	41242.75	43129.75	0.000044	598156	0.177419	0.164313	0.162858	21206.7	20995.9	18677.2	1.863819	18679.1	0.889577	3462.03	3460.66	0.943695	1.090771	0.111705	0.063432	0.078095	295826	30295.2	0.01088	0.013395	0.561205	0.029266	152204	0.00502	2.95344e+07	5.4718e+06	0.185269	870864	4.70053e+06	4.78053e+06	1.09386e+07	2.02659e+06	3.0037e+07	1.11248e+07
167.186	77.65	75.7486	1.000001	242	2228	586548.5	105223.5	43379667	41270.5	43144	0.000044	595912	0.179394	0.16628	0.164773	21286.6	21068.4	18750	1.863819	18751.8	0.889965	3515.64	3514.27	0.943695	1.089479	0.110412	0.062879	0.078648	295476	29944.8	0.010785	0.01349	0.56145	0.029146	152270	0.004999	2.96494e+07	5.55657e+06	0.187409	884355	4.71884e+06	4.80099e+06	1.09813e+07	2.05799e+06	3.01656e+07	1.11724e+07
168.882	75.0875	72.3571	1.000001	242	2228	583894	106000.5	43395551.5	41285.25	43158	0.000044	593438	0.181541	0.168417	0.166851	21375.3	21149.1	18830.8	1.863819	18832.7	0.890392	3574.52	3573.14	0.943695	1.088305	0.109238	0.062377	0.079151	295158	29626.4	0.010699	0.013576	0.561719	0.029015	152343	0.004977	2.97772e+07	5.64966e+06	0.189731	899171	4.73919e+06	4.82373e+06	1.10286e+07	2.09247e+06	3.03084e+07	1.12253e+07
170.621	72.6875	68.8789	1.000001	246	2231	582354	106329.75	43432792	41320.375	43194.625	0.000044	591982	0.182586	0.169458	0.167863	21782.1	21549.3	19231.3	1.863819	19233.1	0.892442	3664.9	3663.53	0.959336	1.101194	0.122128	0.061199	0.080329	298653	33122.1	0.010497	0.013778	0.572319	0.028937	155218	0.004963	3.04104e+07	5.79257e+06	0.19048	921915	4.83996e+06	4.92698e+06	1.12631e+07	2.1454e+06	3.09572e+07	1.14656e+07
172.365	70.3375	65.3907	1.000001	251	2234	584505.5	107863	43472596.25	41347.5	43229.625	0.000044	594375	0.184537	0.1714	0.169751	22135.4	21892.8	19575.2	1.863819	19577.1	0.894147	3766.23	3764.86	0.974977	1.113896	0.134829	0.05994	0.081588	302098	36566.8	0.010281	0.013994	0.585067	0.029043	158675	0.004982	3.09542e+07	5.95279e+06	0.19231	947415	4.92651e+06	5.01678e+06	1.14645e+07	2.20474e+06	3.15214e+07	1.16746e+07
174.064	68.1625	61.994	1.000001	251	2234	582286.875	108622.375	43487858.625	41370.25	43246.625	0.000044	592332	0.186544	0.173398	0.171691	22211.7	21961.2	19643.7	1.863819	19645.5	0.894482	3822.08	3820.71	0.974977	1.112768	0.133702	0.059457	0.08207	301792	36261.1	0.010198	0.014077	0.585286	0.028933	158735	0.004963	3.10625e+07	6.0411e+06	0.194482	961470	4.94374e+06	5.03637e+06	1.15046e+07	2.23744e+06	3.16444e+07	1.17202e+07
175.83	65.9375	58.4606	1.000001	263	2243	582525.625	110104.375	43572473.875	41447.375	43328.625	0.000044	592840	0.189012	0.175855	0.174075	23253.7	22985.4	20668.7	1.863819	20670.6	0.899217	4057.72	4056.35	1.021901	1.153447	0.174381	0.056781	0.084747	312825	47293.6	0.009739	0.014536	0.616514	0.028941	167204	0.004964	3.26832e+07	6.41368e+06	0.196238	1.02077e+06	5.20169e+06	5.3009e+06	1.21049e+07	2.37544e+06	3.33065e+07	1.23358e+07
177.514	64.1	55.0942	1.000001	263	2243	580784.625	110619.125	43589728.375	41465	43341	0.000044	591225	0.190465	0.177301	0.175477	23317.2	23042.7	20726.1	1.863819	20727.9	0.899474	4101.32	4099.95	1.021901	1.152174	0.173108	0.056235	0.085293	312479	46948.3	0.009646	0.01463	0.61669	0.028855	167252	0.004949	3.27739e+07	6.48262e+06	0.197798	1.03174e+06	5.21612e+06	5.31718e+06	1.21385e+07	2.40097e+06	3.34089e+07	1.23737e+07
179.298	62.2	51.5249	1.000001	275	2252	581893.125	112712.125	43677148.875	41533.5	43431.75	0.000044	592709	0.193699	0.180519	0.178596	24320	24023.9	21708.1	1.863819	21710	0.903611	4354.34	4352.97	1.068825	1.192652	0.213586	0.05347	0.088058	323457	57926.3	0.009171	0.015104	0.647794	0.028906	175687	0.004958	3.43266e+07	6.88268e+06	0.200506	1.09541e+06	5.46325e+06	5.57198e+06	1.27136e+07	2.54914e+06	3.50098e+07	1.29666e+07
181.01	60.4	48.1022	1.000001	275	2252	580699.625	112880.625	43693409.625	41565.375	43444.625	0.000044	591569	0.194387	0.181204	0.179259	24366.9	24067.5	21751.8	1.863819	21753.6	0.903791	4378.82	4377.45	1.068825	1.191454	0.212388	0.052955	0.088572	323132	57601.3	0.009083	0.015192	0.647923	0.028847	175722	0.004948	3.43957e+07	6.92139e+06	0.201228	1.10157e+06	5.47424e+06	5.58397e+06	1.27391e+07	2.56348e+06	3.50851e+07	1.29945e+07
182.765	58.85	44.5917	1.000001	287	2261	581581.25	114422	43777983.75	41646	43533.5	0.000044	592730	0.196743	0.183549	0.181528	25380.4	25061.9	22747	1.863819	22748.8	0.907636	4619.54	4618.16	1.115749	1.232148	0.253081	0.05028	0.091247	334169	68637.8	0.008624	0.015651	0.679073	0.028887	184170	0.004955	3.59692e+07	7.30199e+06	0.203007	1.16215e+06	5.72467e+06	5.84144e+06	1.33219e+07	2.70444e+06	3.67029e+07	1.35937e+07
184.453	57.1125	41.2164	1.000001	287	2261	580860.625	114668.875	43795123.125	41665.5	43550.75	0.000044	592071	0.197412	0.184215	0.182172	25408.6	25086.9	22772.1	1.863819	22774	0.907734	4640.94	4639.57	1.115749	1.230886	0.251819	0.049738	0.091789	333827	68295.5	0.008531	0.015744	0.679146	0.028851	184190	0.004949	3.6009e+07	7.33584e+06	0.203723	1.16753e+06	5.731e+06	5.84872e+06	1.33366e+07	2.71698e+06	3.67486e+07	1.36106e+07
186.22	63.2	41.8309	1.000001	299	2270	582682.5	115867.25	43813710.75	41682	43567.5	0.000044	594091	0.198851	0.185647	0.183557	26381	26044.2	23729.5	1.863819	23731.4	0.911131	4856.29	4854.91	1.162674	1.276441	0.297375	0.04915	0.092377	346182	80650.6	0.008431	0.015845	0.71019	0.028938	192610	0.004964	3.75227e+07	7.67633e+06	0.204578	1.22172e+06	5.97192e+06	6.09561e+06	1.38973e+07	2.84308e+06	3.82999e+07	1.41851e+07
187.907	63.9	45.2052	1.000001	299	2270	582682.125	116047.125	43813069.125	41669	43568.75	0.000044	594126	0.19916	0.185954	0.183854	26379.4	26041.2	23726.5	1.863819	23728.4	0.91112	4863.77	4862.4	1.162674	1.276489	0.297422	0.049171	0.092357	346195	80663.4	0.008434	0.015842	0.710182	0.028938	192607	0.004964	3.7518e+07	7.68815e+06	0.204919	1.22361e+06	5.97117e+06	6.09525e+06	1.38956e+07	2.84746e+06	3.82976e+07	1.41843e+07
189.604	65.1	48.5982	1.000001	299	2270	583468.75	115769.5	43800122	41667.875	43559.75	0.000044	594843	0.198416	0.185214	0.183138	26347.6	26013.2	23698.4	1.863819	23700.2	0.911021	4839.15	4837.78	1.162674	1.277442	0.298375	0.04958	0.091947	346453	80921.9	0.008504	0.015771	0.710105	0.028977	192586	0.00497	3.74735e+07	7.64923e+06	0.204124	1.21741e+06	5.96409e+06	6.08707e+06	1.38791e+07	2.83305e+06	3.82462e+07	1.41653e+07
191.295	68	51.9813	1.000001	299	2270	584141.875	115341.375	43777186.375	41647.125	43542	0.000044	595420	0.197454	0.184257	0.182213	26322.1	25992.4	23677.4	1.863819	23679.2	0.910942	4810.27	4808.9	1.162674	1.279131	0.300064	0.050306	0.091222	346911	81379.9	0.008629	0.015647	0.710043	0.02901	192570	0.004976	3.74403e+07	7.60357e+06	0.203085	1.21014e+06	5.9588e+06	6.08044e+06	1.38668e+07	2.81614e+06	3.82046e+07	1.41498e+07
193	71.3125	55.391	1.000001	299	2270	585086.25	115185.75	43752143.75	41619	43515	0.000044	596317	0.19687	0.183675	0.18165	26282.5	25955.8	23640.6	1.863819	23642.5	0.910809	4788.31	4786.94	1.162674	1.280975	0.301908	0.051098	0.09043	347411	81880.1	0.008765	0.015511	0.709939	0.029057	192542	0.004984	3.73822e+07	7.56885e+06	0.202472	1.20462e+06	5.94956e+06	6.07029e+06	1.38453e+07	2.80328e+06	3.81408e+07	1.41262e+07
194.575	74.4625	58.5417	1.000001	299	2270	586197.5	115178.5	43729802.75	41592.5	43495.75	0.000044	597406	0.196484	0.183291	0.181279	26234.6	25910.1	23594.7	1.863819	23596.6	0.910644	4769.85	4768.48	1.162674	1.282621	0.303554	0.051804	0.089723	347858	82326.4	0.008886	0.01539	0.709811	0.029112	192507	0.004994	3.73097e+07	7.53966e+06	0.202083	1.19997e+06	5.93801e+06	6.05805e+06	1.38184e+07	2.79247e+06	3.80639e+07	1.40977e+07