File: FirefighterJacket/data/DMA/feb26_dma/Nomex Feb26_30_DCnone.txt
Filename:	P:\+Courses\MatSci\Spring2016\Emily_Adam\DMA\Nomex Feb26_30_DCnone.dm8d
Operator ID:	EmilyAdam
Sample ID:	outerlayer_Feb26_30_DCnone
Comment: 	three cycles, strain at 30 microns, drive control mode=none
Serial Number:	3066274
Data Collected:	2/26/2016 8:39:41 PM
Validation
Validated:	No
By:
Date:
Calibration Information
Filename:	C:\Program Files (x86)\PerkinElmer\Pyris\Calibrations\2_16_16 Tension.dm8c
Date/Time:
Initial Conditions
Temperature:
Measuring System:	Tension - Rectangle
Clamp Mass	9.343 g
Length:	5.830 mm
Width:	8.380 mm
Thickness:	0.440 mm
End Condition:	Go To Load
Total Points in Run:	2277
Method Steps:
Pre-Run Actions
Start the Run
	Action occurs Immediately
Switch the Gas to Nitrogen at 20.0 ml/min
	Action occurs Immediately
1)	Heat from 75.00°C to 150.00°C at 2.00°C/min

2)	Cool from 150.00°C to 40.00°C at 2.00°C/min

3)	Heat from 40.00°C to 150.00°C at 2.00°C/min

4)	Cool from 150.00°C to 40.00°C at 2.00°C/min

5)	Heat from 40.00°C to 150.00°C at 2.00°C/min

6)	Cool from 150.00°C to 40.00°C at 2.00°C/min

1) DMA8000 Temperature Scan
	Time     	Sample     	Program     	Frequency     	Raw Dynamic	Raw Static	In-Phase     	Out-Of-Phase	Zero Displacement	Min Displacement	Max Displacement	Spring     	C*     	Measured     	Corrected     	Corrected     	Stiffness*	Total     	Stiffness     	Inertia     	Sample     	Ratio of     	Total     	Sample     	Total Applied	Static Force	Static     	Static     	Static     	Static Stress	Static     	Static Strain	Static     	Dynamic Force	Displacement	Dynamic     	Dynamic     	Storage     	Loss Modulus	Tan Delta     	Loss Viscosity	Storage     	Complex     	Shear Storage	Shear Loss	Complex     	Shear Complex
	          	Temperature	Temperature	          	Force     	Force     	Angle     	Angle     	               	               	               	Stiffness     	          	Tan Delta     	Total Tan Delta	Total Delta	          	Stiffness'	Less Spring	          	Stiffness'	Sample to Total	Stiffness''	Stiffness''	Static Force	          	Force Corrected	Displacement	Displacement Co	          	Stress Correcte	          	Strain Correcte	          	Amplitude     	Stress     	Strain     	Modulus     	          	          	               	Viscosity     	Viscosity     	Modulus     	Modulus     	Modulus     	Modulus
	0.000000	74.25	75	1.000001	66	2075	525350	68150.2	4.12118e+07	39306.4	40961.4	0.000045	529752	0.129724	0.116796	0.116270	6530.47	6493.15	4148.29	1.863819	4150.16	0.638975	759.191	757.801	0.145986	0.454221	0.000000	0.131451	0.000000	123189	0.000000	0.022547	0.000000	0.109939	0.026151	29816.3	0.004486	6.562e+06	1.19819e+06	0.182596	190698	1.04437e+06	1.06164e+06	2.43037e+06	443776	6.6705e+06	2.47055e+06
	0.399880	74.6	75.7998	1.000001	73	2075	589359	68841.8	4.11741e+07	39141.4	40999.2	0.000045	593366	0.116808	0.103919	0.103547	6448.71	6420.82	4075.39	1.863819	4077.25	0.634821	667.951	666.561	0.145986	0.457093	0.002872	0.132644	0.001193	123968	778.898	0.022752	0.000205	0.120808	0.029333	32764.2	0.005031	6.44673e+06	1.05393e+06	0.163483	167738	1.02603e+06	1.03965e+06	2.38768e+06	390345	6.53231e+06	2.41937e+06
	0.796380	75.1375	76.5928	1.000001	73	2075	588809	67293.1	4.11677e+07	39144.9	40990	0.000045	592642	0.114287	0.101405	0.101060	6456.59	6430.32	4084.79	1.863819	4086.66	0.635345	652.758	651.368	0.145986	0.457579	0.003358	0.132846	0.001395	124099	910.783	0.022787	0.000239	0.120908	0.029304	32791.3	0.005026	6.4616e+06	1.02991e+06	0.159389	163915	1.0284e+06	1.04138e+06	2.39319e+06	381447	6.54317e+06	2.42339e+06
	1.189241	75.85	77.3785	1.000001	74	2075	596116	66862.5	4.11589e+07	39125.4	40991.2	0.000045	599854	0.112164	0.099287	0.098963	6466.34	6441.4	4095.74	1.863819	4097.6	0.635952	640.229	638.839	0.145986	0.458251	0.004030	0.133125	0.001674	124282	1093.07	0.022834	0.000287	0.122681	0.029667	33272.2	0.005089	6.47891e+06	1.0101e+06	0.155906	160762	1.03115e+06	1.04361e+06	2.3996e+06	374110	6.55718e+06	2.42858e+06
	1.578721	76.7625	78.1574	1.000001	74	2075	596317	66340.6	4.11518e+07	39111.2	40980.1	0.000045	599996	0.111251	0.098377	0.098061	6464.82	6440.45	4094.69	1.863819	4096.55	0.635882	634.264	632.874	0.145986	0.458789	0.004568	0.133348	0.001897	124428	1238.94	0.022873	0.000325	0.122668	0.029677	33268.6	0.005090	6.47724e+06	1.00067e+06	0.154490	159261	1.03088e+06	1.04311e+06	2.39898e+06	370617	6.55408e+06	2.42744e+06
	1.971064	77.4875	78.9421	1.000001	74	2075	595466	66497	4.11455e+07	39111	40978	0.000045	599167	0.111672	0.098797	0.098478	6473.76	6449.1	4103.24	1.863819	4105.11	0.636355	637.832	636.442	0.145986	0.459267	0.005046	0.133546	0.002095	124557	1368.57	0.022907	0.000359	0.122759	0.029635	33293.3	0.005083	6.49077e+06	1.00631e+06	0.155037	160159	1.03304e+06	1.04538e+06	2.40399e+06	372706	6.56831e+06	2.43271e+06
	2.365742	78.4125	79.7315	1.000001	74	2075	595155	66268.2	4.11395e+07	39099.2	40968.6	0.000045	598833	0.111346	0.098472	0.098156	6477.38	6452.92	4106.96	1.863819	4108.83	0.636556	636.11	634.719	0.145986	0.459724	0.005503	0.133736	0.002285	124681	1492.52	0.022939	0.000392	0.122798	0.029619	33303.9	0.005080	6.49666e+06	1.00358e+06	0.154477	159725	1.03397e+06	1.04624e+06	2.40617e+06	371698	6.57371e+06	2.43471e+06
	2.757303	79.3625	80.5146	1.000001	74	2075	593238	65491.9	4.11337e+07	39099.4	40959	0.000045	596842	0.110397	0.097526	0.097218	6498.98	6475.05	4129.01	1.863819	4130.88	0.637784	632.159	630.769	0.145986	0.460172	0.005951	0.133922	0.002470	124803	1613.88	0.022971	0.000424	0.123035	0.029523	33368.1	0.005064	6.53152e+06	997337	0.152696	158731	1.03952e+06	1.05157e+06	2.41908e+06	369384	6.60722e+06	2.44712e+06
	3.149123	80.2375	81.2982	1.000001	74	2075	592137	65736.2	4.1128e+07	39103.1	40952.8	0.000045	595775	0.111015	0.098142	0.097829	6510.62	6486.28	4140.15	1.863819	4142.02	0.638398	637.258	635.868	0.145986	0.460601	0.006380	0.134100	0.002648	124919	1730.29	0.023002	0.000454	0.123153	0.029468	33400.2	0.005055	6.54913e+06	1.0054e+06	0.153517	160014	1.04233e+06	1.05454e+06	2.4256e+06	372370	6.62586e+06	2.45402e+06
	3.537833	81.05	82.0757	1.000001	74	2075	591103	65233.5	4.11227e+07	39097	40946	0.000045	594692	0.110359	0.097488	0.097181	6522.48	6498.52	4152.31	1.863819	4154.18	0.639066	634.204	632.814	0.145986	0.461008	0.006786	0.134268	0.002817	125029	1840.55	0.023031	0.000483	0.123282	0.029417	33435.2	0.005046	6.56836e+06	1.00057e+06	0.152332	159246	1.04539e+06	1.05745e+06	2.43273e+06	370582	6.64413e+06	2.46079e+06
	3.929645	81.825	82.8593	1.000001	74	2075	589562	65228.8	4.11164e+07	39097.8	40938.1	0.000045	593159	0.110639	0.097767	0.097458	6539.33	6515.15	4168.84	1.863819	4170.71	0.639972	637.652	636.262	0.145986	0.461490	0.007269	0.134468	0.003017	125160	1971.38	0.023065	0.000518	0.123457	0.029340	33482.6	0.005033	6.5945e+06	1.00602e+06	0.152555	160113	1.04955e+06	1.06169e+06	2.44241e+06	372601	6.67079e+06	2.47066e+06
	4.319645	82.7125	83.6393	1.000001	74	2075	588640	65056	4.11111e+07	39092.2	40930.1	0.000045	592225	0.110519	0.097647	0.097339	6549.65	6525.52	4179.14	1.863819	4181	0.640532	637.885	636.495	0.145986	0.461892	0.007671	0.134635	0.003184	125269	2080.42	0.023094	0.000546	0.123565	0.029294	33511.9	0.005025	6.61077e+06	1.00639e+06	0.152235	160172	1.05214e+06	1.06426e+06	2.44843e+06	372737	6.68693e+06	2.47664e+06
	4.708865	83.55	84.4177	1.000001	75	2075	594990	65262.4	4.11024e+07	39070.2	40928.5	0.000045	598558	0.109687	0.096817	0.096516	6567.92	6544.27	4197.75	1.863819	4199.61	0.641541	634.28	632.889	0.145986	0.462555	0.008334	0.134910	0.003459	125449	2260.22	0.023141	0.000593	0.125432	0.029610	34018.3	0.005079	6.6402e+06	1.00069e+06	0.150702	159265	1.05682e+06	1.06875e+06	2.45933e+06	370626	6.71518e+06	2.4871e+06
	5.109266	84.35	85.2185	1.000001	75	2075	596532	65390.2	4.10947e+07	39064.2	40926.1	0.000045	600105	0.109617	0.096748	0.096448	6550.99	6527.42	4180.79	1.863819	4182.65	0.640598	632.195	630.805	0.145986	0.463147	0.008926	0.135156	0.003704	125609	2420.86	0.023183	0.000635	0.125248	0.029686	33968.3	0.005092	6.61338e+06	997394	0.150815	158740	1.05255e+06	1.06445e+06	2.4494e+06	369405	6.68817e+06	2.4771e+06
	5.503946	85.15	86.0079	1.000001	75	2075	594181	64855.5	4.10888e+07	39053	40917	0.000045	597710	0.109151	0.096283	0.095987	6577.24	6553.89	4207.17	1.863819	4209.03	0.642036	631.709	630.319	0.145986	0.463596	0.009375	0.135342	0.003890	125731	2542.55	0.023215	0.000667	0.125529	0.029569	34044.5	0.005072	6.65509e+06	996626	0.149754	158618	1.05919e+06	1.071e+06	2.46485e+06	369121	6.7293e+06	2.49233e+06
	5.898887	86	86.7978	1.000001	75	2075	594677	65834.1	4.1084e+07	39048.6	40916	0.000045	598310	0.110706	0.097833	0.097523	6570.64	6546.34	4199.54	1.863819	4201.4	0.641612	641.142	639.751	0.145986	0.463959	0.009737	0.135492	0.004041	125830	2640.88	0.023240	0.000693	0.125446	0.029594	34022	0.005076	6.64303e+06	1.01154e+06	0.152271	160991	1.05727e+06	1.06946e+06	2.46038e+06	374644	6.7196e+06	2.48874e+06
	6.290967	86.7125	87.5819	1.000001	75	2075	591746	65435.4	4.10766e+07	39049.2	40908.1	0.000045	595353	0.110580	0.097708	0.097399	6603.28	6578.97	4232.05	1.863819	4233.92	0.643371	643.516	642.126	0.145986	0.464528	0.010307	0.135728	0.004277	125984	2795.26	0.023281	0.000734	0.125790	0.029448	34115.3	0.005051	6.69444e+06	1.01529e+06	0.151662	161589	1.06545e+06	1.07764e+06	2.47942e+06	376035	6.77099e+06	2.50777e+06
	6.678888	87.5625	88.3578	1.000001	75	2075	590408	65363	4.10703e+07	39038.9	40894.6	0.000045	594015	0.110708	0.097836	0.097526	6618.15	6593.72	4246.71	1.863819	4248.57	0.644154	645.803	644.413	0.145986	0.465006	0.010785	0.135926	0.004475	126114	2924.88	0.023315	0.000768	0.125943	0.029382	34156.8	0.005040	6.71761e+06	1.01891e+06	0.151678	162164	1.06914e+06	1.08137e+06	2.488e+06	377374	6.79444e+06	2.51646e+06
	7.073568	88.3625	89.1471	1.000001	75	2075	589964	65602.6	4.1064e+07	39034	40889	0.000045	593600	0.111198	0.098324	0.098009	6622.78	6598.02	4250.91	1.863819	4252.78	0.644371	649.45	648.06	0.145986	0.465490	0.011269	0.136127	0.004675	126245	3056.22	0.023349	0.000802	0.125985	0.029360	34168.3	0.005036	6.72426e+06	1.02468e+06	0.152385	163082	1.0702e+06	1.08255e+06	2.49047e+06	379510	6.80188e+06	2.51922e+06
	7.462009	89.1625	89.924	1.000001	75	2075	587981	65133.4	4.10589e+07	39033.5	40880.1	0.000045	591578	0.110775	0.097902	0.097591	6645.42	6620.87	4273.68	1.863819	4275.55	0.645587	648.905	647.514	0.145986	0.465878	0.011657	0.136287	0.004836	126350	3161.47	0.023377	0.000830	0.126223	0.029261	34232.8	0.005019	6.76026e+06	1.02381e+06	0.151446	162945	1.07593e+06	1.0882e+06	2.5038e+06	379190	6.83735e+06	2.53235e+06
	7.862669	90.025	90.7253	1.000001	76	2075	596115	65363.9	4.10488e+07	39014.4	40880.2	0.000045	599688	0.109650	0.096780	0.096480	6642.96	6619.13	4271.79	1.863819	4273.66	0.645470	641.301	639.91	0.145986	0.466650	0.012429	0.136607	0.005156	126559	3370.81	0.023432	0.000884	0.127883	0.029665	34682.9	0.005088	6.75727e+06	1.01179e+06	0.149734	161031	1.07545e+06	1.08744e+06	2.50269e+06	374737	6.8326e+06	2.53059e+06
	8.257610	90.725	91.5152	1.000001	76	2075	594686	65434.1	4.10423e+07	39007.8	40870.5	0.000045	598275	0.110031	0.097161	0.096857	6658.64	6634.54	4287.1	1.863819	4288.96	0.646278	645.323	643.932	0.145986	0.467141	0.012919	0.136811	0.005359	126693	3503.88	0.023467	0.000919	0.128043	0.029594	34726.4	0.005076	6.78148e+06	1.01815e+06	0.150137	162044	1.0793e+06	1.0914e+06	2.51166e+06	377093	6.85748e+06	2.53981e+06
	8.646311	91.475	92.2926	1.000001	76	2075	593641	65651.6	4.10362e+07	39007.4	40864.8	0.000045	597260	0.110591	0.097720	0.097410	6669.95	6645.46	4297.93	1.863819	4299.79	0.646845	650.102	648.711	0.145986	0.467608	0.013386	0.137004	0.005553	126819	3630.53	0.023500	0.000952	0.128155	0.029542	34756.8	0.005067	6.79859e+06	1.02571e+06	0.150871	163246	1.08203e+06	1.09427e+06	2.518e+06	379892	6.87553e+06	2.54649e+06
	9.032411	92.3625	93.0648	1.000001	76	2075	593003	65862.2	4.103e+07	39001	40857.8	0.000045	596649	0.111066	0.098193	0.097879	6676.78	6651.97	4304.34	1.863819	4306.2	0.647176	653.889	652.498	0.145986	0.468084	0.013862	0.137201	0.005750	126948	3759.6	0.023534	0.000986	0.128221	0.029511	34774.6	0.005062	6.80873e+06	1.03169e+06	0.151525	164199	1.08364e+06	1.09601e+06	2.52175e+06	382109	6.88645e+06	2.55054e+06
	9.428911	93.1	93.8578	1.000001	76	2075	591490	65735.4	4.10242e+07	38996.8	40852.6	0.000045	595132	0.111135	0.098262	0.097947	6693.81	6668.9	4321.18	1.863819	4323.05	0.648058	656.019	654.628	0.145986	0.468525	0.014304	0.137384	0.005932	127068	3879.27	0.023565	0.001018	0.128396	0.029435	34822	0.005049	6.83537e+06	1.03506e+06	0.151427	164735	1.08788e+06	1.10028e+06	2.53162e+06	383356	6.91329e+06	2.56048e+06
	9.821772	93.8875	94.6435	1.000001	76	2075	590815	65710	4.10186e+07	38988.1	40844.9	0.000045	594458	0.111219	0.098346	0.098031	6701.4	6676.42	4328.61	1.863819	4330.48	0.648441	657.32	655.929	0.145986	0.468952	0.014731	0.137561	0.006109	127184	3995.07	0.023595	0.001048	0.128472	0.029402	34842.6	0.005043	6.84711e+06	1.03712e+06	0.151468	165062	1.08975e+06	1.10218e+06	2.53597e+06	384118	6.92521e+06	2.56489e+06
	10.2115	94.65	95.423	1.000001	76	2075	588896	66064.5	4.10122e+07	38989.5	40836.9	0.000045	592590	0.112184	0.099307	0.098983	6722.52	6696.85	4348.94	1.863819	4350.8	0.649499	665.781	664.39	0.145986	0.469443	0.015222	0.137764	0.006313	127317	4128.37	0.023630	0.001083	0.128681	0.029307	34899.4	0.005027	6.87925e+06	1.0505e+06	0.152705	167192	1.09487e+06	1.10756e+06	2.54787e+06	389073	6.959e+06	2.57741e+06
	10.6041	95.3875	96.2082	1.000001	77	2075	594735	65640.2	4.10036e+07	38972.6	40834.6	0.000045	598346	0.110369	0.097498	0.097190	6745.45	6720.91	4372.87	1.863819	4374.73	0.650733	655.998	654.607	0.145986	0.470097	0.015876	0.138035	0.006583	127494	4305.71	0.023677	0.001129	0.130622	0.029596	35425.8	0.005077	6.91709e+06	1.03503e+06	0.149634	164730	1.10089e+06	1.11314e+06	2.56188e+06	383344	6.99409e+06	2.59041e+06
	10.9985	96.2	96.9971	1.000001	77	2075	595605	65903.6	4.0996e+07	38963	40830.5	0.000045	599240	0.110650	0.097778	0.097468	6735.39	6710.69	4362.53	1.863819	4364.4	0.650184	656.883	655.491	0.145986	0.470679	0.016458	0.138276	0.006824	127652	4463.56	0.023718	0.001171	0.130512	0.029640	35395.9	0.005084	6.90075e+06	1.03643e+06	0.150191	164952	1.09829e+06	1.11061e+06	2.55583e+06	383862	6.97814e+06	2.5845e+06
	11.3911	97.075	97.7823	1.000001	77	2075	594866	66100.4	4.09891e+07	38961.9	40821.9	0.000045	598527	0.111118	0.098245	0.097931	6743.41	6718.39	4370.12	1.863819	4371.98	0.650568	660.777	659.385	0.145986	0.471208	0.016987	0.138495	0.007043	127796	4607.07	0.023756	0.001208	0.130589	0.029603	35416.8	0.005078	6.91274e+06	1.04258e+06	0.150821	165932	1.1002e+06	1.11264e+06	2.56027e+06	386142	6.99092e+06	2.58923e+06
	11.7822	97.8125	98.5643	1.000001	77	2075	592933	66183.4	4.09827e+07	38956.2	40811.4	0.000045	596615	0.111620	0.098746	0.098427	6765.03	6739.61	4391.25	1.863819	4393.11	0.651654	666.247	664.856	0.145986	0.471695	0.017473	0.138696	0.007244	127928	4738.94	0.023790	0.001243	0.130807	0.029507	35476	0.005061	6.94615e+06	1.05123e+06	0.151341	167309	1.10551e+06	1.1181e+06	2.57265e+06	389346	7.02524e+06	2.60194e+06
	12.1696	98.6	99.3392	1.000001	77	2075	592508	66279.8	4.09764e+07	38946.9	40807.1	0.000045	596204	0.111863	0.098988	0.098666	6769.69	6744.1	4395.64	1.863819	4397.5	0.651871	668.325	666.933	0.145986	0.472175	0.017954	0.138895	0.007443	128058	4869.31	0.023824	0.001277	0.130851	0.029486	35487.8	0.005058	6.95309e+06	1.05452e+06	0.151662	167832	1.10662e+06	1.11927e+06	2.57522e+06	390562	7.0326e+06	2.60467e+06
	12.5624	99.325	100.125	1.000001	77	2075	590418	66235	4.097e+07	38951.5	40795.1	0.000045	594121	0.112183	0.099307	0.098983	6793.42	6767.56	4418.99	1.863819	4420.86	0.653063	672.817	671.425	0.145986	0.472669	0.018448	0.139099	0.007648	128192	5003.14	0.023859	0.001312	0.131090	0.029382	35552.6	0.005040	6.99002e+06	1.06162e+06	0.151877	168962	1.1125e+06	1.12525e+06	2.5889e+06	393193	7.07018e+06	2.61858e+06
	12.9548	99.9875	100.91	1.000001	77	2075	589376	66087.5	4.09636e+07	38942.8	40789.6	0.000045	593070	0.112131	0.099255	0.098931	6805.46	6779.6	4430.94	1.863819	4432.8	0.653664	673.662	672.271	0.145986	0.473156	0.018934	0.139300	0.007849	128324	5135.18	0.023894	0.001346	0.131210	0.029330	35585.4	0.005031	7.0089e+06	1.06296e+06	0.151658	169175	1.1155e+06	1.12826e+06	2.59589e+06	393688	7.08905e+06	2.62557e+06
	13.3456	100.888	101.691	1.000001	77	2075	588916	66162.9	4.09567e+07	38936.2	40782.2	0.000045	592621	0.112347	0.099470	0.099144	6810.62	6784.6	4435.83	1.863819	4437.69	0.653903	675.621	674.229	0.145986	0.473688	0.019467	0.139521	0.008069	128468	5279.7	0.023932	0.001384	0.131258	0.029307	35598.4	0.005027	7.01664e+06	1.06605e+06	0.151932	169668	1.11673e+06	1.12955e+06	2.59875e+06	394835	7.09716e+06	2.62858e+06
	13.7332	101.725	102.466	1.000001	78	2075	594761	66391.4	4.09481e+07	38917.9	40782.5	0.000045	598455	0.111627	0.098752	0.098433	6831.81	6806.22	4457.31	1.863819	4459.17	0.654982	672.884	671.492	0.145986	0.474341	0.020119	0.139790	0.008339	128645	5456.58	0.023978	0.001430	0.133183	0.029598	36120.2	0.005077	7.0506e+06	1.06173e+06	0.150587	168979	1.12214e+06	1.13479e+06	2.61134e+06	393232	7.1301e+06	2.64078e+06
	14.1282	102.475	103.256	1.000001	78	2075	594933	66326	4.09397e+07	38915.5	40772	0.000045	598619	0.111485	0.098611	0.098293	6829.94	6804.45	4455.41	1.863819	4457.27	0.654873	671.742	670.35	0.145986	0.474982	0.020761	0.140056	0.008604	128819	5630.64	0.024023	0.001476	0.133160	0.029606	36114.2	0.005078	7.04759e+06	1.05992e+06	0.150395	168692	1.12166e+06	1.13427e+06	2.61022e+06	392563	7.12685e+06	2.63957e+06
	14.5153	103.325	104.031	1.000001	78	2075	594011	66688.4	4.09328e+07	38905.8	40768.2	0.000045	597743	0.112268	0.099392	0.099066	6839.95	6813.9	4464.76	1.863819	4466.62	0.655336	678.004	676.613	0.145986	0.475516	0.021295	0.140276	0.008825	128964	5775.43	0.024061	0.001514	0.133254	0.029561	36139.7	0.005070	7.06237e+06	1.06982e+06	0.151482	170267	1.12401e+06	1.13683e+06	2.61569e+06	396231	7.14294e+06	2.64554e+06
	14.9082	104.1	104.816	1.000001	78	2075	592629	66525	4.09261e+07	38891.4	40753.4	0.000045	596351	0.112254	0.099378	0.099053	6855.92	6829.84	4480.58	1.863819	4482.45	0.656125	679.498	678.106	0.145986	0.476025	0.021804	0.140487	0.009035	129102	5913.39	0.024097	0.001550	0.133415	0.029492	36183.2	0.005059	7.0874e+06	1.07218e+06	0.151280	170643	1.12799e+06	1.14083e+06	2.62496e+06	397105	7.16805e+06	2.65483e+06
	15.3031	104.75	105.606	1.000001	78	2075	591585	66475.8	4.09195e+07	38891.6	40748.6	0.000045	595308	0.112369	0.099492	0.099166	6867.92	6841.73	4492.38	1.863819	4494.24	0.656707	681.467	680.075	0.145986	0.476534	0.022313	0.140697	0.009246	129240	6051.46	0.024133	0.001586	0.133533	0.029440	36215.3	0.005050	7.10605e+06	1.0753e+06	0.151321	171139	1.13096e+06	1.14384e+06	2.63187e+06	398258	7.18694e+06	2.66183e+06
	15.6965	105.612	106.393	1.000001	78	2075	590286	66785.5	4.09125e+07	38893.6	40740.4	0.000045	594052	0.113141	0.100262	0.099928	6882.45	6855.69	4506.23	1.863819	4508.09	0.657390	688.143	686.751	0.145986	0.477065	0.022844	0.140917	0.009465	129384	6195.39	0.024171	0.001624	0.133672	0.029375	36253	0.005039	7.12795e+06	1.08585e+06	0.152338	172819	1.13445e+06	1.14753e+06	2.63998e+06	402168	7.21018e+06	2.67044e+06
	16.0961	106.487	107.192	1.000001	78	2075	590078	68082.1	4.09057e+07	38883.5	40734.8	0.000045	593993	0.115378	0.102493	0.102137	6883.14	6854.84	4505.27	1.863819	4507.13	0.657332	703.369	701.977	0.145986	0.477587	0.023366	0.141132	0.009681	129526	6336.94	0.024208	0.001661	0.133660	0.029366	36249.8	0.005037	7.12643e+06	1.10993e+06	0.155748	176650	1.13421e+06	1.14788e+06	2.63942e+06	411085	7.21235e+06	2.67124e+06
	16.4918	107.2	107.984	1.000001	78	2075	587742	66666.1	4.08987e+07	38886.2	40729	0.000045	591510	0.113428	0.100548	0.100211	6912.02	6884.99	4535.3	1.863819	4537.17	0.658816	693.058	691.666	0.145986	0.478124	0.023902	0.141354	0.009903	129671	6482.55	0.024246	0.001699	0.133962	0.029249	36331.6	0.005017	7.17392e+06	1.09362e+06	0.152444	174056	1.14176e+06	1.15496e+06	2.65701e+06	405046	7.2568e+06	2.6877e+06
	16.886	107.975	108.772	1.000001	79	2075	595234	66874.2	4.08884e+07	38856.6	40724.8	0.000045	598978	0.112350	0.099473	0.099147	6913.35	6887.06	4537.21	1.863819	4539.07	0.658894	685.854	684.461	0.145986	0.478914	0.024693	0.141681	0.010229	129886	6696.95	0.024302	0.001755	0.135696	0.029621	36801.8	0.005081	7.17693e+06	1.08223e+06	0.150793	172243	1.14224e+06	1.15516e+06	2.65812e+06	400827	7.25807e+06	2.68817e+06
	17.2752	108.725	109.55	1.000001	79	2075	594473	67030.9	4.08808e+07	38849	40714.5	0.000045	598241	0.112757	0.099879	0.099549	6921.88	6895.28	4545.31	1.863819	4547.18	0.659284	689.477	688.084	0.145986	0.479492	0.025271	0.141919	0.010468	130042	6853.67	0.024343	0.001796	0.135776	0.029583	36823.6	0.005074	7.18975e+06	1.08796e+06	0.151321	173154	1.14428e+06	1.15731e+06	2.66287e+06	402949	7.2716e+06	2.69318e+06
	17.6696	109.55	110.339	1.000001	79	2075	593374	67128	4.08735e+07	38849.9	40707.6	0.000045	597159	0.113129	0.100251	0.099917	6934.42	6907.53	4557.44	1.863819	4559.3	0.659871	693.272	691.879	0.145986	0.480055	0.025833	0.142152	0.010700	130195	7006.25	0.024383	0.001835	0.135897	0.029529	36856.3	0.005065	7.20892e+06	1.09396e+06	0.151751	174109	1.14733e+06	1.16047e+06	2.66997e+06	405171	7.29146e+06	2.70054e+06
	18.0578	110.388	111.116	1.000001	79	2075	591987	67252.9	4.08665e+07	38835.1	40695.5	0.000045	595795	0.113605	0.100725	0.100387	6950.29	6923.03	4572.84	1.863819	4574.7	0.660616	698.12	696.728	0.145986	0.480590	0.026369	0.142373	0.010921	130340	7151.44	0.024421	0.001873	0.136050	0.029460	36898	0.005053	7.23327e+06	1.10163e+06	0.152300	175329	1.15121e+06	1.16448e+06	2.67899e+06	408010	7.31667e+06	2.70988e+06
	18.4504	111.1	111.901	1.000001	79	2075	590713	67251.1	4.08589e+07	38832	40685.4	0.000045	594528	0.113847	0.100967	0.100626	6965.1	6937.63	4587.31	1.863819	4589.18	0.661313	701.271	699.879	0.145986	0.481169	0.026948	0.142612	0.011160	130497	7308.45	0.024462	0.001914	0.136194	0.029396	36936.9	0.005042	7.25616e+06	1.10661e+06	0.152506	176122	1.15485e+06	1.1682e+06	2.68747e+06	409856	7.34005e+06	2.71854e+06
	18.836	111.963	112.672	1.000001	79	2075	589738	67385.5	4.08521e+07	38836.1	40682.4	0.000045	593575	0.114264	0.101382	0.101037	6976.29	6948.49	4598.07	1.863819	4599.93	0.661827	705.257	703.865	0.145986	0.481693	0.027472	0.142828	0.011377	130639	7450.73	0.024499	0.001951	0.136300	0.029348	36965.6	0.005034	7.27316e+06	1.11291e+06	0.153016	177125	1.15756e+06	1.17103e+06	2.69376e+06	412190	7.35782e+06	2.72512e+06
	19.2275	112.713	113.455	1.000001	79	2075	588663	67099.6	4.0845e+07	38831	40676.1	0.000045	592475	0.113987	0.101106	0.100763	6989.24	6961.61	4611.07	1.863819	4612.93	0.662447	704.664	703.272	0.145986	0.482235	0.028014	0.143052	0.011600	130786	7597.5	0.024537	0.001990	0.136427	0.029294	37000.3	0.005025	7.29372e+06	1.11197e+06	0.152457	176976	1.16083e+06	1.17424e+06	2.70138e+06	411843	7.378e+06	2.73259e+06
	19.6251	113.4	114.25	1.000001	79	2075	587315	67431.2	4.08375e+07	38825	40663.8	0.000045	591173	0.114813	0.101929	0.101579	7004.63	6976.37	4625.71	1.863819	4627.58	0.663144	711.916	710.523	0.145986	0.482814	0.028593	0.143291	0.011840	130943	7754.75	0.024578	0.002031	0.136571	0.029228	37039.2	0.005013	7.31687e+06	1.12344e+06	0.153541	178801	1.16452e+06	1.17816e+06	2.70995e+06	416089	7.40262e+06	2.74171e+06
	20.0244	114.237	115.049	1.000001	80	2075	595455	67660.6	4.0826e+07	38798.9	40663.9	0.000045	599287	0.113628	0.100748	0.100410	6997.26	6969.85	4619.01	1.863819	4620.87	0.662803	703.008	701.615	0.145986	0.483694	0.029473	0.143654	0.012203	131182	7993.28	0.024640	0.002093	0.138228	0.029632	37488.7	0.005083	7.30628e+06	1.10936e+06	0.151836	176559	1.16283e+06	1.17616e+06	2.70603e+06	410872	7.39002e+06	2.73704e+06
	20.4165	115.025	115.833	1.000001	80	2075	594551	68337.6	4.08182e+07	38789.6	40654.1	0.000045	598465	0.114940	0.102056	0.101704	7006.87	6978.51	4627.55	1.863819	4629.41	0.663203	713.02	711.627	0.145986	0.484289	0.030068	0.143899	0.012448	131343	8154.63	0.024683	0.002135	0.138312	0.029588	37511.4	0.005075	7.31977e+06	1.12519e+06	0.153719	179079	1.16498e+06	1.17866e+06	2.71103e+06	416736	7.40575e+06	2.74287e+06
	20.8086	115.825	116.617	1.000001	80	2075	593265	67978.4	4.08106e+07	38793.2	40642.2	0.000045	597147	0.114584	0.101701	0.101352	7022.34	6994.19	4643.11	1.863819	4644.97	0.663941	712.136	710.743	0.145986	0.484869	0.030648	0.144139	0.012688	131501	8312.07	0.024724	0.002176	0.138466	0.029523	37553.1	0.005064	7.34437e+06	1.12379e+06	0.153013	178856	1.16889e+06	1.1825e+06	2.72014e+06	416218	7.42985e+06	2.7518e+06
	21.1947	116.7	117.389	1.000001	80	2075	592152	68065.4	4.08036e+07	38772.5	40635.8	0.000045	596051	0.114946	0.102062	0.101710	7035.25	7006.8	4655.6	1.863819	4657.47	0.664529	715.955	714.562	0.145986	0.485411	0.031190	0.144362	0.012911	131648	8458.98	0.024762	0.002215	0.138588	0.029468	37586.4	0.005055	7.36413e+06	1.12983e+06	0.153423	179817	1.17204e+06	1.18575e+06	2.72746e+06	418454	7.4503e+06	2.75937e+06
	21.5824	117.362	118.165	1.000001	80	2075	591769	68419.8	4.07965e+07	38773.4	40634.9	0.000045	595711	0.115619	0.102733	0.102374	7039.26	7010.33	4659.01	1.863819	4660.88	0.664682	721.028	719.634	0.145986	0.485953	0.031732	0.144586	0.013135	131795	8606.08	0.024800	0.002253	0.138620	0.029449	37595	0.005051	7.36952e+06	1.13785e+06	0.154399	181094	1.1729e+06	1.18679e+06	2.72945e+06	421425	7.45685e+06	2.7618e+06
	21.9708	118.1	118.942	1.000001	80	2075	590107	67872.4	4.07885e+07	38766.5	40619.9	0.000045	593997	0.115017	0.102133	0.101780	7059.57	7031.01	4679.57	1.863819	4681.43	0.665650	718.932	717.539	0.145986	0.486569	0.032348	0.144840	0.013389	131962	8773.09	0.024844	0.002297	0.138822	0.029366	37649.7	0.005037	7.40202e+06	1.13453e+06	0.153273	180566	1.17807e+06	1.19182e+06	2.74149e+06	420198	7.48846e+06	2.7735e+06
	22.3631	118.925	119.726	1.000001	80	2075	588586	67926.8	4.07807e+07	38766.4	40607.5	0.000045	592493	0.115407	0.102522	0.102165	7077.5	7048.61	4697.04	1.863819	4698.9	0.666466	723.475	722.082	0.145986	0.487167	0.032946	0.145086	0.013635	132124	8935.14	0.024886	0.002339	0.138992	0.029291	37695.9	0.005024	7.42965e+06	1.14172e+06	0.153670	181710	1.18246e+06	1.19634e+06	2.75172e+06	422858	7.51686e+06	2.78402e+06
	22.7531	119.725	120.506	1.000001	81	2075	595438	68222.1	4.07696e+07	38742.6	40608.5	0.000045	599334	0.114575	0.101692	0.101344	7084.17	7055.85	4704.11	1.863819	4705.97	0.666783	718.359	716.965	0.145986	0.488021	0.033800	0.145439	0.013987	132355	9166.83	0.024947	0.002399	0.140797	0.029631	38185.3	0.005083	7.44082e+06	1.13363e+06	0.152352	180422	1.18424e+06	1.19791e+06	2.75586e+06	419862	7.52668e+06	2.78766e+06
	23.1419	120.537	121.284	1.000001	81	2075	594520	68725.6	4.07609e+07	38735.2	40603.1	0.000045	598479	0.115598	0.102713	0.102354	7094.29	7065.2	4713.32	1.863819	4715.18	0.667204	726.534	725.14	0.145986	0.488688	0.034467	0.145713	0.014262	132536	9347.62	0.024994	0.002446	0.140886	0.029586	38209.4	0.005075	7.45538e+06	1.14655e+06	0.153788	182479	1.18656e+06	1.20051e+06	2.76125e+06	424649	7.54303e+06	2.79372e+06
	23.5373	121.325	122.075	1.000001	81	2075	593580	68511	4.07532e+07	38728.4	40590	0.000045	597520	0.115420	0.102535	0.102178	7105.67	7076.69	4724.67	1.863819	4726.54	0.667727	726.456	725.062	0.145986	0.489279	0.035058	0.145957	0.014506	132697	9507.99	0.025036	0.002488	0.140996	0.029539	38239.3	0.005067	7.47335e+06	1.14643e+06	0.153402	182460	1.18942e+06	1.20333e+06	2.76791e+06	424603	7.56077e+06	2.80028e+06
	23.932	122.138	122.864	1.000001	81	2075	592491	68578.9	4.0745e+07	38716.8	40582.5	0.000045	596447	0.115747	0.102861	0.102500	7118.46	7089.2	4737.06	1.863819	4738.92	0.668294	730.053	728.66	0.145986	0.489906	0.035685	0.146215	0.014764	132867	9677.96	0.025080	0.002532	0.141116	0.029485	38271.8	0.005057	7.49292e+06	1.15212e+06	0.153761	183365	1.19253e+06	1.20655e+06	2.77516e+06	426710	7.58098e+06	2.80777e+06
	24.3197	122.825	123.639	1.000001	81	2075	591418	68580.6	4.07369e+07	38722.2	40571.8	0.000045	595381	0.115960	0.103073	0.102711	7131.21	7101.76	4749.48	1.863819	4751.34	0.668862	732.859	731.465	0.145986	0.490527	0.036306	0.146471	0.015020	133035	9846.47	0.025124	0.002576	0.141236	0.029432	38304.3	0.005048	7.51257e+06	1.15655e+06	0.153949	184071	1.19566e+06	1.20975e+06	2.78243e+06	428353	7.60107e+06	2.81521e+06
	24.7086	123.6	124.417	1.000001	81	2075	590052	68613.8	4.07288e+07	38722.8	40560.6	0.000045	594027	0.116284	0.103397	0.103031	7147.45	7117.72	4765.31	1.863819	4767.17	0.669586	736.814	735.42	0.145986	0.491149	0.036928	0.146727	0.015276	133204	10015.1	0.025168	0.002620	0.141389	0.029364	38345.8	0.005037	7.53759e+06	1.16281e+06	0.154268	185066	1.19964e+06	1.21384e+06	2.7917e+06	430669	7.62676e+06	2.82473e+06
	25.095	124.4	125.19	1.000001	81	2075	588865	68582.5	4.07205e+07	38712.8	40554.5	0.000045	592845	0.116466	0.103578	0.103210	7161.71	7131.8	4779.25	1.863819	4781.12	0.670219	739.564	738.17	0.145986	0.491786	0.037565	0.146990	0.015539	133377	10188	0.025213	0.002665	0.141522	0.029305	38382.1	0.005027	7.55964e+06	1.16715e+06	0.154393	185758	1.20315e+06	1.21741e+06	2.79987e+06	432280	7.64921e+06	2.83304e+06
	25.4868	125.188	125.974	1.000001	81	2075	587273	68741.2	4.0712e+07	38699.4	40542.8	0.000045	591282	0.117052	0.104162	0.103788	7180.64	7150.24	4797.55	1.863819	4799.42	0.671050	745.662	744.268	0.145986	0.492440	0.038219	0.147259	0.015808	133554	10365.3	0.025259	0.002711	0.141698	0.029225	38429.6	0.005013	7.58858e+06	1.1768e+06	0.155075	187293	1.20776e+06	1.22219e+06	2.81058e+06	435850	7.67928e+06	2.84418e+06
	25.8776	126.062	126.755	1.000001	82	2075	595017	68836.8	4.07003e+07	38677.2	40545.8	0.000045	598986	0.115689	0.102803	0.102443	7175.8	7146.41	4793.54	1.863819	4795.4	0.670847	735.538	734.144	0.145986	0.493341	0.039120	0.147630	0.016179	133798	10609.6	0.025322	0.002775	0.143404	0.029610	38892.3	0.005079	7.58223e+06	1.16079e+06	0.153093	184745	1.20675e+06	1.22081e+06	2.80823e+06	429922	7.67057e+06	2.84095e+06
	26.2655	126.7	127.531	1.000001	82	2075	594112	69193.4	4.06913e+07	38666.9	40531.9	0.000045	598128	0.116465	0.103577	0.103209	7186.09	7156.1	4803.08	1.863819	4804.95	0.671273	742.084	740.69	0.145986	0.494027	0.039806	0.147913	0.016461	133984	10795.7	0.025371	0.002824	0.143495	0.029566	38917	0.005071	7.59732e+06	1.17114e+06	0.154152	186392	1.20915e+06	1.22343e+06	2.81382e+06	433755	7.68706e+06	2.84706e+06
	26.6532	127.45	128.306	1.000001	82	2075	592724	69231.8	4.06829e+07	38670.6	40519	0.000045	596754	0.116803	0.103914	0.103542	7202.63	7172.35	4819.19	1.863819	4821.06	0.671998	746.188	744.793	0.145986	0.494677	0.040455	0.148180	0.016729	134160	10971.9	0.025417	0.002869	0.143650	0.029497	38959	0.005059	7.62279e+06	1.17763e+06	0.154488	187425	1.2132e+06	1.2276e+06	2.82326e+06	436158	7.71322e+06	2.85675e+06
	27.0491	128.35	129.098	1.000001	82	2075	591259	69436.8	4.06735e+07	38662.1	40512	0.000045	595322	0.117439	0.104548	0.104170	7219.96	7189.15	4835.84	1.863819	4837.7	0.672743	752.504	751.109	0.145986	0.495399	0.041177	0.148477	0.017026	134356	11167.7	0.025468	0.002920	0.143809	0.029424	39002.2	0.005047	7.64911e+06	1.18761e+06	0.155262	189014	1.21739e+06	1.23198e+06	2.833e+06	439857	7.74076e+06	2.86695e+06
	27.4404	129.1	129.881	1.000001	82	2075	589807	69305.5	4.06646e+07	38655.5	40502.2	0.000045	593865	0.117505	0.104615	0.104235	7237.68	7206.76	4853.3	1.863819	4855.17	0.673522	754.829	753.434	0.145986	0.496084	0.041863	0.148759	0.017308	134542	11353.6	0.025516	0.002969	0.143975	0.029351	39047.4	0.005035	7.67673e+06	1.19129e+06	0.155182	189599	1.22179e+06	1.23641e+06	2.84323e+06	441218	7.76861e+06	2.87726e+06
	27.8333	129.925	130.667	1.000001	82	2075	588672	69613.9	4.06559e+07	38648.8	40489.6	0.000045	592774	0.118256	0.105363	0.104975	7250.99	7219.48	4865.88	1.863819	4867.74	0.674077	761.57	760.175	0.145986	0.496749	0.042528	0.149033	0.017581	134723	11533.9	0.025563	0.003016	0.144094	0.029295	39079.6	0.005025	7.6966e+06	1.20195e+06	0.156166	191296	1.22495e+06	1.2398e+06	2.85059e+06	445166	7.78989e+06	2.88514e+06
	28.2204	130.7	131.441	1.000001	82	2075	587118	69704.4	4.06472e+07	38646	40481.1	0.000045	591242	0.118723	0.105829	0.105436	7269.79	7237.86	4884.11	1.863819	4885.98	0.674885	766.887	765.492	0.145986	0.497420	0.043199	0.149309	0.017857	134905	11715.9	0.025610	0.003063	0.144267	0.029218	39126.4	0.005012	7.72544e+06	1.21035e+06	0.156671	192634	1.22954e+06	1.24454e+06	2.86127e+06	448280	7.81968e+06	2.89618e+06
	28.6115	131.387	132.223	1.000001	83	2075	594606	70014	4.06349e+07	38611.4	40480.6	0.000045	598713	0.117749	0.104857	0.104475	7266.61	7235.43	4881.48	1.863819	4883.35	0.674748	759.592	758.197	0.145986	0.498367	0.044146	0.149698	0.018247	135161	11972.8	0.025677	0.003130	0.145996	0.029590	39595.5	0.005076	7.72128e+06	1.19882e+06	0.155262	190798	1.22888e+06	1.2436e+06	2.85973e+06	444007	7.81379e+06	2.894e+06
	29.0075	132.2	133.015	1.000001	83	2075	593299	70130.6	4.06253e+07	38606.2	40464.8	0.000045	597429	0.118205	0.105312	0.104925	7282.23	7250.66	4896.55	1.863819	4898.42	0.675409	764.493	763.098	0.145986	0.499102	0.044881	0.150000	0.018549	135361	12172.2	0.025729	0.003182	0.146140	0.029525	39634.3	0.005064	7.74511e+06	1.20657e+06	0.155785	192031	1.23267e+06	1.24754e+06	2.86856e+06	446878	7.83853e+06	2.90316e+06
	29.3954	133.025	133.791	1.000001	83	2075	591869	70351	4.06153e+07	38597.4	40453	0.000045	596035	0.118863	0.105968	0.105574	7299.27	7267.13	4912.86	1.863819	4914.73	0.676122	771.006	769.611	0.145986	0.499876	0.045655	0.150318	0.018867	135571	12382	0.025784	0.003236	0.146294	0.029454	39676.1	0.005052	7.7709e+06	1.21687e+06	0.156593	193670	1.23678e+06	1.25185e+06	2.87811e+06	450691	7.8656e+06	2.91318e+06
	29.7867	133.8	134.573	1.000001	83	2075	590499	70550	4.06052e+07	38596.9	40441	0.000045	594699	0.119475	0.106579	0.106178	7315.67	7283.01	4928.58	1.863819	4930.44	0.676805	777.147	775.752	0.145986	0.500651	0.046429	0.150637	0.019185	135781	12592.1	0.025838	0.003291	0.146442	0.029386	39716.2	0.005041	7.79574e+06	1.22658e+06	0.157339	195216	1.24073e+06	1.25599e+06	2.88731e+06	454288	7.89165e+06	2.92283e+06
	30.1782	134.562	135.356	1.000001	83	2075	589102	70463.4	4.05956e+07	38589.2	40432.9	0.000045	593302	0.119611	0.106715	0.106312	7332.9	7300.08	4945.48	1.863819	4947.35	0.677539	779.964	778.569	0.145986	0.501392	0.047170	0.150941	0.019490	135982	12793	0.025890	0.003343	0.146600	0.029317	39759.3	0.005029	7.82248e+06	1.23103e+06	0.157371	195924	1.24499e+06	1.26031e+06	2.89721e+06	455937	7.91875e+06	2.93287e+06
	30.5695	135.375	136.139	1.000001	83	2075	587723	70629.8	4.05862e+07	38581.2	40424.6	0.000045	591952	0.120175	0.107277	0.106868	7349.62	7316.31	4961.56	1.863819	4963.42	0.678232	785.819	784.423	0.145986	0.502114	0.047893	0.151238	0.019787	136178	12989	0.025941	0.003394	0.146750	0.029248	39800	0.005017	7.8479e+06	1.24029e+06	0.158041	197398	1.24903e+06	1.26453e+06	2.90663e+06	459366	7.9453e+06	2.9427e+06
	30.9616	136.037	136.923	1.000001	84	2075	594543	71046.2	4.05727e+07	38559.9	40419.1	0.000045	598773	0.119497	0.106601	0.106200	7353.43	7320.64	4965.66	1.863819	4967.53	0.678392	781.329	779.933	0.145986	0.503152	0.048930	0.151664	0.020213	136459	13270.4	0.026014	0.003467	0.148554	0.029587	40289	0.005075	7.85438e+06	1.23319e+06	0.157006	196268	1.25006e+06	1.26538e+06	2.90903e+06	456736	7.9506e+06	2.94467e+06
	31.349	136.887	137.698	1.000001	84	2075	593290	71011.4	4.05627e+07	38550.2	40407.2	0.000045	597525	0.119691	0.106794	0.106391	7368.79	7335.8	4980.65	1.863819	4982.52	0.679034	784.366	782.97	0.145986	0.503925	0.049704	0.151982	0.020531	136669	13480.2	0.026069	0.003522	0.148694	0.029525	40327.1	0.005064	7.87809e+06	1.23799e+06	0.157144	197032	1.25384e+06	1.26922e+06	2.91781e+06	458515	7.97476e+06	2.95362e+06
	31.746	137.787	138.492	1.000001	84	2075	591947	71495.4	4.0552e+07	38539.2	40394.4	0.000045	596249	0.120780	0.107880	0.107464	7384.55	7350.66	4995.34	1.863819	4997.2	0.679658	793.949	792.554	0.145986	0.504747	0.050526	0.152319	0.020868	136892	13703	0.026127	0.003579	0.148831	0.029459	40364.2	0.005053	7.9013e+06	1.25314e+06	0.158600	199444	1.25753e+06	1.27325e+06	2.92641e+06	464127	8.00006e+06	2.96298e+06
	32.1444	138.512	139.289	1.000001	84	2075	590022	71699	4.05418e+07	38533.5	40384	0.000045	594363	0.121519	0.108617	0.108193	7407.99	7373.43	5017.94	1.863819	5019.8	0.680624	801.853	800.457	0.145986	0.505536	0.051315	0.152643	0.021192	137106	13917.1	0.026182	0.003635	0.149042	0.029363	40421.5	0.005037	7.93704e+06	1.26564e+06	0.159460	201433	1.26322e+06	1.27918e+06	2.93964e+06	468755	8.03731e+06	2.97678e+06
	32.5375	139.325	140.075	1.000001	84	2075	588557	71766.4	4.05308e+07	38527.8	40369.6	0.000045	592916	0.121936	0.109033	0.108604	7426.07	7391.11	5035.44	1.863819	5037.3	0.681363	806.856	805.46	0.145986	0.506378	0.052157	0.152989	0.021538	137334	14145.5	0.026242	0.003694	0.149204	0.029290	40465.4	0.005024	7.96471e+06	1.27355e+06	0.159899	202691	1.26762e+06	1.28372e+06	2.94989e+06	471685	8.06588e+06	2.98736e+06
	32.9335	140.1	140.867	1.000001	84	2075	587121	71902.5	4.05204e+07	38521.1	40359.2	0.000045	591507	0.122466	0.109561	0.109126	7443.76	7408.31	5052.46	1.863819	5054.33	0.682079	812.656	811.26	0.145986	0.507180	0.052959	0.153318	0.021867	137552	14363	0.026298	0.003751	0.149361	0.029219	40508	0.005012	7.99163e+06	1.28272e+06	0.160508	204151	1.27191e+06	1.28819e+06	2.95986e+06	475082	8.09392e+06	2.99775e+06
	33.3294	140.812	141.659	1.000001	85	2075	593899	72409.5	4.05064e+07	38498.8	40349.5	0.000045	598297	0.121922	0.109019	0.108590	7446.9	7411.88	5055.79	1.863819	5057.66	0.682200	809.023	807.627	0.145986	0.508266	0.054045	0.153764	0.022312	137846	14657.6	0.026375	0.003827	0.151166	0.029556	40997.5	0.005070	7.99689e+06	1.27698e+06	0.159684	203237	1.27274e+06	1.28887e+06	2.96181e+06	472954	8.0982e+06	2.99933e+06
	33.7207	141.65	142.441	1.000001	85	2075	592606	72795.8	4.04953e+07	38486.1	40339.5	0.000045	597060	0.122840	0.109934	0.109494	7462.31	7426.5	5070.23	1.863819	5072.1	0.682801	817.425	816.029	0.145986	0.509120	0.054899	0.154114	0.022662	138078	14889	0.026435	0.003887	0.151299	0.029492	41033.6	0.005059	8.01972e+06	1.29026e+06	0.160886	205351	1.27638e+06	1.29279e+06	2.97027e+06	477874	8.12285e+06	3.00846e+06
	34.1084	142.475	143.217	1.000001	85	2075	590820	72915.8	4.04845e+07	38478.6	40326	0.000045	595302	0.123415	0.110507	0.110060	7484.35	7448	5091.54	1.863819	5093.41	0.683692	824.065	822.669	0.145986	0.509956	0.055735	0.154457	0.023005	138304	15115.8	0.026493	0.003946	0.151496	0.029403	41087.1	0.005043	8.05342e+06	1.30076e+06	0.161516	207022	1.28174e+06	1.29835e+06	2.98275e+06	481763	8.15779e+06	3.0214e+06
	34.4989	143.238	143.998	1.000001	85	2075	589310	73021.4	4.04737e+07	38475.1	40311.4	0.000045	593817	0.123910	0.111000	0.110548	7503.07	7466.24	5109.61	1.863819	5111.47	0.684440	829.778	828.382	0.145986	0.510783	0.056562	0.154796	0.023344	138529	15340	0.026552	0.004004	0.151662	0.029328	41132.1	0.005031	8.08198e+06	1.30979e+06	0.162063	208460	1.28629e+06	1.30307e+06	2.99333e+06	485108	8.18743e+06	3.03238e+06
	34.8858	144.062	144.772	1.000001	85	2075	587603	73245.2	4.04631e+07	38460.8	40300.9	0.000045	592150	0.124651	0.111739	0.111278	7524.19	7486.67	5129.86	1.863819	5131.72	0.685277	837.59	836.193	0.145986	0.511604	0.057383	0.155132	0.023681	138751	15562.9	0.026609	0.004062	0.151848	0.029243	41182.4	0.005016	8.114e+06	1.32214e+06	0.162946	210426	1.29138e+06	1.30841e+06	3.00518e+06	489683	8.22101e+06	3.04482e+06
	35.2833	144.7	145.567	1.000001	86	2075	594251	73405.6	4.04485e+07	38439.9	40299.6	0.000045	598767	0.123526	0.110618	0.110170	7528.58	7491.97	5134.91	1.863819	5136.77	0.685466	829.773	828.376	0.145986	0.512732	0.058511	0.155594	0.024143	139057	15868.6	0.026689	0.004141	0.153677	0.029574	41678.4	0.005073	8.12199e+06	1.30978e+06	0.161264	208458	1.29265e+06	1.30935e+06	3.00814e+06	485105	8.22692e+06	3.04701e+06
[...]
	275.776	83.4375	82.7218	1.000001	82	2075	609084	64590.1	4.06722e+07	38632.6	40532.1	0.000045	612499	0.106045	0.093185	0.092916	7017.48	6995.12	4641.78	1.863819	4643.65	0.663665	652.588	651.193	0.145986	0.495498	0.041277	0.148518	0.017067	134383	11194.6	0.025475	0.002927	0.141868	0.030307	38475.9	0.005199	7.34228e+06	1.02963e+06	0.140233	163871	1.16856e+06	1.17999e+06	2.71936e+06	381345	7.41413e+06	2.74597e+06
	276.296	82.5125	81.6828	1.000001	82	2075	609933	64752.6	4.06756e+07	38632.1	40541.4	0.000045	613361	0.106163	0.093303	0.093034	7007.62	6985.2	4631.92	1.863819	4633.79	0.663195	652.49	651.096	0.145986	0.495234	0.041013	0.148409	0.016958	134312	11123.2	0.025456	0.002909	0.141768	0.030350	38448.7	0.005206	7.32669e+06	1.02948e+06	0.140510	163846	1.16608e+06	1.17753e+06	2.71359e+06	381288	7.39867e+06	2.74025e+06
	276.813	81.7	80.6491	1.000001	82	2075	610205	64858.2	4.06791e+07	38636.1	40535.6	0.000045	613642	0.106289	0.093429	0.093158	7004.41	6981.91	4628.69	1.863819	4630.56	0.663045	653.06	651.665	0.145986	0.494971	0.040749	0.148301	0.016850	134240	11051.6	0.025438	0.002890	0.141736	0.030363	38440	0.005208	7.32158e+06	1.03038e+06	0.140732	163990	1.16527e+06	1.17675e+06	2.7117e+06	381621	7.39373e+06	2.73842e+06
	277.334	80.85	79.6059	1.000001	82	2075	610437	65205.5	4.06825e+07	38636.1	40548.9	0.000045	613910	0.106818	0.093956	0.093681	7001.36	6978.52	4625.36	1.863819	4627.22	0.662889	656.425	655.031	0.145986	0.494707	0.040485	0.148192	0.016741	134169	10980	0.025419	0.002872	0.141703	0.030375	38430.9	0.005210	7.31631e+06	1.0357e+06	0.141560	164836	1.16443e+06	1.17604e+06	2.70975e+06	383592	7.38926e+06	2.73676e+06
	277.853	79.9	78.5685	1.000001	82	2075	611072	65310.5	4.06858e+07	38641.4	40547.8	0.000045	614552	0.106879	0.094016	0.093741	6994.04	6971.18	4618.07	1.863819	4619.94	0.662542	656.157	654.763	0.145986	0.494452	0.040231	0.148088	0.016636	134100	10911	0.025401	0.002854	0.141628	0.030407	38410.8	0.005216	7.30479e+06	1.03528e+06	0.141726	164769	1.16259e+06	1.17421e+06	2.70548e+06	383436	7.37779e+06	2.73251e+06
	278.376	79.0625	77.5233	1.000001	82	2075	611392	65669.6	4.06893e+07	38643.5	40549.1	0.000045	614909	0.107410	0.094546	0.094266	6989.98	6966.79	4613.73	1.863819	4615.6	0.662337	659.44	658.046	0.145986	0.494185	0.039964	0.147978	0.016526	134027	10838.6	0.025382	0.002835	0.141585	0.030423	38398.9	0.005218	7.29793e+06	1.04047e+06	0.142570	165595	1.1615e+06	1.17325e+06	2.70294e+06	385358	7.37173e+06	2.73027e+06
	278.9	78.2125	76.4755	1.000001	82	2075	611680	65377.5	4.06924e+07	38647.2	40551.8	0.000045	615164	0.106882	0.094020	0.093744	6987.09	6964.24	4611.24	1.863819	4613.1	0.662221	655.526	654.132	0.145986	0.493944	0.039723	0.147878	0.016427	133962	10773.2	0.025365	0.002818	0.141560	0.030437	38392.2	0.005221	7.29399e+06	1.03428e+06	0.141799	164610	1.16087e+06	1.17249e+06	2.70148e+06	383066	7.36695e+06	2.7285e+06
	279.425	77.425	75.4236	1.000001	80	2075	594531	65665.9	4.07021e+07	38689.1	40547.5	0.000045	598146	0.110450	0.097578	0.097270	7010.6	6985.34	4632.5	1.863819	4634.36	0.663264	682.403	681.008	0.145986	0.493202	0.038981	0.147573	0.016122	133761	10572.1	0.025313	0.002765	0.138325	0.029585	37514.8	0.005075	7.3276e+06	1.07677e+06	0.146948	171374	1.16622e+06	1.17875e+06	2.71393e+06	398805	7.40629e+06	2.74307e+06
	279.949	76.7	74.3758	1.000001	80	2075	594400	65402.5	4.07051e+07	38687.5	40548.8	0.000045	597987	0.110031	0.097161	0.096857	7012.47	6987.49	4634.69	1.863819	4636.56	0.663374	679.691	678.297	0.145986	0.492974	0.038753	0.147479	0.016028	133699	10510.1	0.025297	0.002749	0.138348	0.029578	37521	0.005073	7.33107e+06	1.07249e+06	0.146293	170691	1.16678e+06	1.17919e+06	2.71521e+06	397217	7.4091e+06	2.74411e+06
	280.478	75.8875	73.3181	1.000001	80	2075	594527	65559.8	4.07081e+07	38696.6	40549.5	0.000045	598131	0.110272	0.097401	0.097095	7010.78	6985.64	4632.89	1.863819	4634.76	0.663292	681.191	679.797	0.145986	0.492742	0.038521	0.147383	0.015932	133636	10447.1	0.025280	0.002733	0.138330	0.029585	37516.4	0.005075	7.32822e+06	1.07486e+06	0.146674	171069	1.16632e+06	1.1788e+06	2.71416e+06	398096	7.40663e+06	2.7432e+06
	280.997	75.05	72.2802	1.000001	80	2075	594479	65521.4	4.0711e+07	38698.2	40551.2	0.000045	598079	0.110216	0.097346	0.097040	7011.39	6986.28	4633.59	1.863819	4635.45	0.663330	680.866	679.472	0.145986	0.492517	0.038296	0.147291	0.015840	133575	10386.2	0.025264	0.002717	0.138338	0.029582	37518.5	0.005074	7.32932e+06	1.07434e+06	0.146582	170987	1.1665e+06	1.17896e+06	2.71456e+06	397905	7.40764e+06	2.74357e+06
	281.525	74.3	71.2251	1.000001	80	2075	594868	65761.5	4.07137e+07	38699.5	40555.9	0.000045	598492	0.110548	0.097676	0.097367	7006.55	6981.23	4628.58	1.863819	4630.44	0.663093	682.684	681.29	0.145986	0.492310	0.038089	0.147206	0.015754	133519	10330.1	0.025250	0.002702	0.138289	0.029602	37505.1	0.005078	7.3214e+06	1.07722e+06	0.147133	171445	1.16524e+06	1.17778e+06	2.71163e+06	398970	7.40022e+06	2.74082e+06
	282.047	73.5	70.1815	1.000001	80	2075	594902	65827	4.07165e+07	38703.4	40555.1	0.000045	598533	0.110652	0.097780	0.097470	7006.08	6980.69	4628.08	1.863819	4629.95	0.663073	683.356	681.962	0.145986	0.492093	0.037872	0.147116	0.015665	133460	10271.2	0.025234	0.002687	0.138285	0.029604	37504	0.005078	7.32062e+06	1.07828e+06	0.147294	171614	1.16511e+06	1.17768e+06	2.71134e+06	399363	7.3996e+06	2.74059e+06
	282.57	72.8	69.1337	1.000001	80	2075	595039	65603.4	4.07188e+07	38709.1	40559	0.000045	598645	0.110251	0.097380	0.097073	7004.77	6979.65	4627.08	1.863819	4628.95	0.663029	680.457	679.063	0.145986	0.491915	0.037694	0.147043	0.015592	133412	10223	0.025222	0.002674	0.138275	0.029610	37501.5	0.005079	7.31904e+06	1.0737e+06	0.146699	170884	1.16486e+06	1.17733e+06	2.71075e+06	397666	7.39737e+06	2.73977e+06
	283.088	72.1	68.0983	1.000001	80	2075	595271	65573.1	4.07212e+07	38709.4	40563.8	0.000045	598872	0.110157	0.097286	0.096981	7002.11	6977.07	4624.53	1.863819	4626.4	0.662909	679.551	678.157	0.145986	0.491735	0.037513	0.146969	0.015517	133363	10174	0.025209	0.002662	0.138251	0.029622	37494.7	0.005081	7.31501e+06	1.07227e+06	0.146584	170656	1.16422e+06	1.17666e+06	2.70926e+06	397135	7.39318e+06	2.73822e+06
	283.604	71.45	67.0661	1.000001	80	2075	595158	65785.2	4.07238e+07	38700.4	40560.4	0.000045	598783	0.110534	0.097662	0.097354	7003.15	6977.84	4625.35	1.863819	4627.22	0.662953	682.255	680.862	0.145986	0.491533	0.037311	0.146885	0.015434	133308	10119.2	0.025195	0.002647	0.138260	0.029616	37497.2	0.005080	7.31631e+06	1.07654e+06	0.147143	171337	1.16443e+06	1.17696e+06	2.70974e+06	398719	7.39508e+06	2.73892e+06
	284.12	70.8	66.0345	1.000001	80	2075	595430	65844.5	4.07265e+07	38704.1	40568	0.000045	599060	0.110583	0.097711	0.097402	6999.91	6974.58	4622.14	1.863819	4624	0.662802	682.278	680.884	0.145986	0.491326	0.037105	0.146800	0.015349	133252	10063.1	0.025180	0.002633	0.138228	0.029630	37488.6	0.005082	7.31122e+06	1.07658e+06	0.147250	171342	1.16362e+06	1.17616e+06	2.70786e+06	398732	7.39006e+06	2.73706e+06
	284.642	70.0625	64.9913	1.000001	80	2075	595311	66178.6	4.07287e+07	38703	40570.1	0.000045	598978	0.111166	0.098293	0.097978	7000.87	6975.14	4622.73	1.863819	4624.6	0.662834	686.396	685.002	0.145986	0.491154	0.036933	0.146729	0.015278	133205	10016.4	0.025168	0.002621	0.138235	0.029624	37490.5	0.005081	7.31216e+06	1.08309e+06	0.148122	172379	1.16377e+06	1.17646e+06	2.70821e+06	401144	7.39194e+06	2.73776e+06
	285.158	69.4	63.9591	1.000001	80	2075	595405	66037.5	4.07316e+07	38700.1	40570.2	0.000045	599056	0.110912	0.098039	0.097727	6999.96	6974.41	4622.05	1.863819	4623.91	0.662805	684.551	683.158	0.145986	0.490934	0.036713	0.146639	0.015188	133146	9956.91	0.025152	0.002605	0.138229	0.029629	37488.9	0.005082	7.31108e+06	1.08017e+06	0.147745	171915	1.16359e+06	1.17622e+06	2.70781e+06	400064	7.39044e+06	2.7372e+06
	285.68	68.6875	62.9144	1.000001	80	2075	595874	65823.8	4.07339e+07	38707.8	40576	0.000045	599499	0.110466	0.097594	0.097286	6994.79	6969.55	4617.23	1.863819	4619.09	0.662576	680.97	679.576	0.145986	0.490757	0.036536	0.146566	0.015115	133097	9908.82	0.025140	0.002593	0.138181	0.029652	37475.9	0.005086	7.30346e+06	1.07451e+06	0.147123	171013	1.16238e+06	1.17489e+06	2.70498e+06	397966	7.38208e+06	2.7341e+06
	286.2	68.1	61.875	1.000001	80	2075	595902	66324	4.07363e+07	38709.4	40580.8	0.000045	599581	0.111300	0.098427	0.098111	6993.83	6968.03	4615.74	1.863819	4617.61	0.662508	686.626	685.232	0.145986	0.490571	0.036350	0.146489	0.015038	133047	9858.43	0.025127	0.002579	0.138167	0.029654	37472	0.005086	7.30111e+06	1.08345e+06	0.148396	172437	1.16201e+06	1.17473e+06	2.70411e+06	401279	7.38106e+06	2.73373e+06
	286.724	67.5125	60.8272	1.000001	80	2075	595628	66001.1	4.07386e+07	38716.5	40576.2	0.000045	599273	0.110809	0.097937	0.097626	6997.42	6971.94	4619.69	1.863819	4621.56	0.662702	683.595	682.201	0.145986	0.490396	0.036175	0.146417	0.014966	132999	9810.87	0.025114	0.002567	0.138207	0.029640	37483	0.005084	7.30736e+06	1.07866e+06	0.147613	171674	1.163e+06	1.1756e+06	2.70643e+06	399503	7.38654e+06	2.73575e+06
	287.241	66.8125	59.7929	1.000001	80	2075	595513	66462.9	4.07411e+07	38723.2	40580.6	0.000045	599210	0.111606	0.098732	0.098413	6998.16	6972.14	4619.93	1.863819	4621.8	0.662718	689.161	687.768	0.145986	0.490207	0.035986	0.146339	0.014888	132948	9759.68	0.025101	0.002554	0.138211	0.029634	37483.9	0.005083	7.30773e+06	1.08746e+06	0.148810	173075	1.16306e+06	1.17587e+06	2.70657e+06	402763	7.3882e+06	2.73637e+06
	287.758	66.1625	58.7586	1.000001	80	2075	595353	66101.5	4.07427e+07	38729.5	40583.4	0.000045	599011	0.111029	0.098156	0.097843	7000.48	6974.85	4622.67	1.863819	4624.53	0.662852	685.41	684.017	0.145986	0.490080	0.035859	0.146287	0.014836	132914	9725.33	0.025092	0.002545	0.138239	0.029626	37491.5	0.005082	7.31205e+06	1.08153e+06	0.147911	172131	1.16375e+06	1.17641e+06	2.70817e+06	400567	7.39161e+06	2.73763e+06
	288.278	65.5375	57.7176	1.000001	80	2075	595688	66683.4	4.07448e+07	38725.6	40585	0.000045	599409	0.111943	0.099068	0.098746	6995.84	6969.6	4617.45	1.863819	4619.31	0.662603	691.257	689.863	0.145986	0.489923	0.035702	0.146222	0.014771	132871	9682.56	0.025081	0.002534	0.138187	0.029643	37477.4	0.005085	7.3038e+06	1.09077e+06	0.149343	173602	1.16244e+06	1.17533e+06	2.70511e+06	403990	7.38481e+06	2.73511e+06
	288.799	64.95	56.6765	1.000001	80	2075	595657	66492.5	4.07479e+07	38723	40586.2	0.000045	599357	0.111629	0.098754	0.098435	6996.45	6970.42	4618.32	1.863819	4620.18	0.662650	689.149	687.755	0.145986	0.489682	0.035461	0.146123	0.014672	132806	9617.36	0.025064	0.002517	0.138197	0.029642	37480.1	0.005084	7.30518e+06	1.08744e+06	0.148859	173072	1.16266e+06	1.17547e+06	2.70562e+06	402756	7.38568e+06	2.73544e+06
	289.32	64.3	55.6344	1.000001	80	2075	595706	66283.5	4.07501e+07	38719.2	40588.5	0.000045	599383	0.111269	0.098395	0.098079	6996.14	6970.36	4618.3	1.863819	4620.16	0.662652	686.637	685.243	0.145986	0.489515	0.035294	0.146054	0.014603	132761	9571.94	0.025052	0.002505	0.138197	0.029644	37480.2	0.005085	7.30515e+06	1.08347e+06	0.148316	172439	1.16265e+06	1.17537e+06	2.70561e+06	401285	7.38506e+06	2.73521e+06
	289.844	63.7	54.5856	1.000001	80	2075	595806	66729	4.0752e+07	38726.8	40591	0.000045	599531	0.111998	0.099122	0.098800	6994.42	6968.14	4616.11	1.863819	4617.97	0.662549	691.491	690.098	0.145986	0.489366	0.035144	0.145993	0.014541	132720	9531.48	0.025042	0.002494	0.138176	0.029649	37474.4	0.005086	7.30169e+06	1.09115e+06	0.149437	173661	1.1621e+06	1.175e+06	2.70433e+06	404128	7.38277e+06	2.73436e+06
	290.362	63.225	53.5503	1.000001	80	2075	595613	66816.4	4.07541e+07	38726.5	40591.6	0.000045	599349	0.112181	0.099305	0.098980	6996.53	6970.13	4618.13	1.863819	4619.99	0.662650	692.961	691.568	0.145986	0.489209	0.034988	0.145928	0.014477	132678	9488.99	0.025031	0.002483	0.138197	0.029640	37480.1	0.005084	7.30488e+06	1.09347e+06	0.149690	174031	1.16261e+06	1.17556e+06	2.70551e+06	404989	7.38627e+06	2.73565e+06
	290.882	62.7	52.5098	1.000001	80	2075	595994	66448	4.07562e+07	38731.9	40594.9	0.000045	599687	0.111491	0.098617	0.098299	6992.59	6966.67	4614.7	1.863819	4616.56	0.662488	687.818	686.424	0.145986	0.489048	0.034827	0.145862	0.014411	132634	9445.41	0.025019	0.002472	0.138163	0.029658	37470.9	0.005087	7.29946e+06	1.08534e+06	0.148687	172737	1.16174e+06	1.17452e+06	2.7035e+06	401977	7.37971e+06	2.73322e+06
	291.403	62.1	51.4682	1.000001	80	2075	596033	66928.6	4.07579e+07	38730	40601.8	0.000045	599779	0.112290	0.099414	0.099088	6991.52	6965.05	4613.12	1.863819	4614.98	0.662414	693.217	691.823	0.145986	0.488914	0.034693	0.145807	0.014355	132598	9409.04	0.025010	0.002462	0.138147	0.029661	37466.7	0.005088	7.29696e+06	1.09387e+06	0.149908	174095	1.16135e+06	1.17432e+06	2.70258e+06	405138	7.37849e+06	2.73277e+06
	291.92	61.8	50.4339	1.000001	80	2075	595917	66707.2	4.07599e+07	38736.1	40594.2	0.000045	599639	0.111940	0.099065	0.098743	6993.15	6966.92	4615.01	1.863819	4616.88	0.662508	690.97	689.576	0.145986	0.488760	0.034538	0.145743	0.014292	132556	9367.13	0.024999	0.002451	0.138167	0.029655	37472.1	0.005087	7.29995e+06	1.09032e+06	0.149360	173530	1.16182e+06	1.17471e+06	2.70369e+06	403822	7.38093e+06	2.73368e+06
	292.436	61	49.4022	1.000001	80	2075	596308	66403.1	4.07614e+07	38740	40603.9	0.000045	599993	0.111357	0.098483	0.098167	6989.02	6963.2	4611.32	1.863819	4613.18	0.662331	686.545	685.151	0.145986	0.488650	0.034429	0.145698	0.014247	132526	9337.52	0.024991	0.002444	0.138130	0.029674	37462.1	0.005090	7.29411e+06	1.08332e+06	0.148520	172416	1.16089e+06	1.17363e+06	2.70152e+06	401231	7.37412e+06	2.73115e+06
	292.955	60.575	48.3653	1.000001	80	2075	596397	66596.5	4.07631e+07	38737.6	40603.1	0.000045	600103	0.111665	0.098790	0.098471	6987.74	6961.71	4609.86	1.863819	4611.72	0.662263	688.536	687.143	0.145986	0.488514	0.034293	0.145642	0.014190	132489	9300.44	0.024981	0.002434	0.138116	0.029678	37458.2	0.005091	7.2918e+06	1.08647e+06	0.148999	172917	1.16053e+06	1.17334e+06	2.70067e+06	402397	7.3723e+06	2.73048e+06
	293.474	60	47.3259	1.000001	80	2075	596377	66245	4.0765e+07	38737.8	40602.2	0.000045	600045	0.111079	0.098206	0.097892	6988.42	6962.79	4610.97	1.863819	4612.83	0.662320	684.571	683.178	0.145986	0.488367	0.034146	0.145581	0.014130	132449	9260.69	0.024971	0.002424	0.138128	0.029677	37461.4	0.005090	7.29355e+06	1.0802e+06	0.148104	171920	1.1608e+06	1.17347e+06	2.70132e+06	400075	7.37311e+06	2.73078e+06
	293.995	59.4	46.2853	1.000001	80	2075	596356	66476.8	4.07669e+07	38736.6	40604.6	0.000045	600049	0.111472	0.098597	0.098280	6988.37	6962.47	4610.68	1.863819	4612.54	0.662309	687.269	685.876	0.145986	0.488228	0.034007	0.145524	0.014073	132412	9223.08	0.024961	0.002414	0.138125	0.029676	37460.8	0.005090	7.2931e+06	1.08447e+06	0.148698	172599	1.16073e+06	1.17349e+06	2.70115e+06	401655	7.37329e+06	2.73085e+06
	294.511	59.1	45.2521	1.000001	80	2075	596290	66795	4.07687e+07	38741.4	40606.9	0.000045	600020	0.112018	0.099142	0.098819	6988.72	6962.44	4610.68	1.863819	4612.54	0.662312	691.062	689.668	0.145986	0.488085	0.033864	0.145465	0.014013	132373	9184.08	0.024951	0.002404	0.138126	0.029673	37461	0.005090	7.2931e+06	1.09047e+06	0.149520	173553	1.16073e+06	1.17364e+06	2.70115e+06	403876	7.37417e+06	2.73118e+06
	295.028	58.6	44.2183	1.000001	80	2075	596595	66600.1	4.07706e+07	38740	40610.4	0.000045	600301	0.111634	0.098759	0.098440	6985.44	6959.43	4607.7	1.863819	4609.57	0.662171	688.095	686.701	0.145986	0.487937	0.033716	0.145404	0.013953	132333	9144.15	0.024941	0.002393	0.138097	0.029688	37453	0.005092	7.2884e+06	1.08577e+06	0.148973	172806	1.15998e+06	1.17278e+06	2.69941e+06	402139	7.36883e+06	2.7292e+06
	295.546	58.1	43.1825	1.000001	80	2075	596539	66524.1	4.07722e+07	38738.5	40608.2	0.000045	600237	0.111517	0.098642	0.098324	6986.18	6960.26	4608.55	1.863819	4610.42	0.662214	687.364	685.97	0.145986	0.487816	0.033595	0.145354	0.013903	132300	9111.22	0.024932	0.002385	0.138106	0.029685	37455.4	0.005092	7.28974e+06	1.08462e+06	0.148787	172622	1.1602e+06	1.17297e+06	2.6999e+06	401711	7.36998e+06	2.72962e+06
	296.063	57.55	42.1487	1.000001	80	2075	596512	66315.5	4.07739e+07	38746.4	40609.1	0.000045	600187	0.111172	0.098299	0.097984	6986.77	6961.08	4609.4	1.863819	4611.26	0.662258	685.05	683.657	0.145986	0.487685	0.033464	0.145300	0.013849	132264	9075.64	0.024923	0.002375	0.138115	0.029684	37457.9	0.005092	7.29108e+06	1.08096e+06	0.148258	172040	1.16041e+06	1.17309e+06	2.7004e+06	400356	7.37077e+06	2.72992e+06
	296.58	57.0125	41.115	1.000001	80	2075	596631	66265.9	4.07756e+07	38751.5	40609.5	0.000045	600299	0.111067	0.098194	0.097880	6985.46	6959.84	4608.19	1.863819	4610.05	0.662202	684.196	682.803	0.145986	0.487555	0.033334	0.145246	0.013795	132229	9040.36	0.024914	0.002366	0.138103	0.029690	37454.7	0.005093	7.28917e+06	1.07961e+06	0.148112	171825	1.16011e+06	1.17276e+06	2.69969e+06	399856	7.36869e+06	2.72914e+06
	297.103	56.6	40.0677	1.000001	80	2075	596756	65847.8	4.07771e+07	38742.2	40614.4	0.000045	600378	0.110343	0.097472	0.097165	6984.55	6959.42	4607.79	1.863819	4609.66	0.662185	679.124	677.731	0.145986	0.487441	0.033220	0.145199	0.013748	132198	9009.48	0.024906	0.002358	0.138100	0.029696	37453.8	0.005094	7.28854e+06	1.07159e+06	0.147024	170549	1.16001e+06	1.17248e+06	2.69946e+06	396885	7.36689e+06	2.72848e+06
	297.367	56.425	39.5404	1.000001	80	2075	596085	65923.6	4.07784e+07	38755.4	40612.2	0.000045	599719	0.110594	0.097722	0.097413	6992.21	6966.9	4615.29	1.863819	4617.16	0.662550	681.604	680.21	0.145986	0.487346	0.033125	0.145160	0.013709	132172	8983.82	0.024899	0.002351	0.138176	0.029662	37474.4	0.005088	7.30039e+06	1.07551e+06	0.147322	171173	1.16189e+06	1.17443e+06	2.70385e+06	398338	7.37919e+06	2.73303e+06

	BALANCE ZERO CALIBRATION RESULTS:
Date:	2/16/2016 3:55:56 PM
Zero Displacement Value:	45367595
Rebalance Force Value:	1980.000

	FORCE FACTOR CALIBRATION RESULTS:
Date:	7/27/2015 3:21:49 PM
Force Factor Value:	  383.599

	SPRING CALIBRATION RESULTS:
Date:	12/4/2014 2:37:24 PM
Stiffness polynomial = 	4.3980e-005, -7.5231e-014, 2.5704e-020, -3.6776e-029, -1.5883e-035, 2.9932e-045, 1.3748e-050
Spring Damping =	0.000593

	FORCE DISPLACEMENT CALIBRATION RESULTS:
Date:	2/26/2016 12:19:32 PM
Displacement Factor Value:	30874

	DE-MOD CONSTANT CALIBRATION RESULTS:
Date:	2/26/2016 12:19:32 PM
De-Mod Constant Value:	0.000562

	PHASE OFFSET CALIBRATION RESULTS:
Date:	2/26/2016 12:19:32 PM
Phase Offset Value:	   -0.009200

	DRIVE SHAFT MASS CALIBRATION RESULTS:
Date:	2/26/2016 12:19:32 PM
Drive Shaft Mass = 	   37.868 g

	OVEN CALIBRATION RESULTS:
Date:	2/26/2016 12:19:32 PM
Sensor Type = 	10
Oven Resistance = 	5.600 Ohms
Oven Name = 	Standard Air OvenStandard Air Oven

	TEMPERATURE CALIBRATION:
Date:	2/26/2016 12:19:32 PM
Upper Limit = 	400.00 °C
Lower Limit = 	-200.00 °C
Offset = 	-6.000
Span = 	-8.700
Ambient: 	Expected 	21.00 (°C)	Measured 	21.00 (°C)
Indium: 	Expected 	156.60 (°C)	Measured 	156.60 (°C)

	PID CALIBRATION:
Date:	12/16/2014 11:36:02 AM
Set Point =	 105.000 °C
PropBand = 	23.000
PropBandSP2 = 	13.000
Integral = 	2.100
Derivative = 	9.000
Calculated Integral = 	-57

	STIFFNESS INFINITY CALIBRATION RESULTS:
Date:	2/26/2016 12:19:32 PM
Stiffness Infinity = 	6130000.000

	INSTRUMENT INFOMATION CALIBRATION RESULTS:
Date:	2/26/2016 12:19:32 PM
DMA Serial Number = 	3066274
Vibrator Serial Number = 	22865
LVDT Serial Number = 	624.08
Analogue PCB Serial Number = 	890
Digital PCB Serial Number = 	895
PIC Code = 	603
FPGA Code = 	621
Instrument Type = 	2
AD Fitted = 	No

	PROFILE VALUES FOR THIS DATA:

Software Version	11.1.0.0488
Firmware Version	603.621
Load Temperature	22.0 °C
Go To Temp Rate	2.0 °C/min
Load Strain	0.010 mm
Load Frequency	1.0 Hz
Strain control window	0.02
Cooling Device
Automatic cryogenic control is 	Off
Automatic cryogenic control on temperature	50.0
Automatic cryogenic control off temperature	40.0
Number of averages	2
Broken sample threshold	0.0 %
Poisson's Ratio	0.35