File: GFBaking/em/1_g13_8.csv
,Time sec,Extension mm,Load kgf,Compressive stress MPa,Cycle Count ,Total Cycle Count ,Repetitions Count ,Marked Data ,PIP Count ,Compressive extension mm,Compressive strain %,Compressive load kgf,Displacement (Strain 1) mm,True strain %,Corrected Position mm,True stress Pa,Elastic Modulus
0,0.0,-0.000133333,-0.02960821,0.0007708231,0,0,0,0,0,0.0,0.0,0.02960821,0,0.0,-0.000133333,770.8231,inf
5,0.25,-0.03573325,-0.03227007,0.0008401222,0,0,0,0,0,0.03559991,0.166277,0.03227007,0,0.1664154,-0.03573325,838.7252,651566
10,0.5,-0.0819998,-0.03545433,0.0009230216,0,0,0,0,0,0.08186647,0.3823749,0.03545433,0,0.3831078,-0.0819998,919.4923,311294
15,0.7500001,-0.124933,-0.03783761,0.0009850682,0,0,0,0,0,0.1247997,0.5829038,0.03783761,0,0.5846093,-0.124933,979.3261,217930
20,1.0,-0.1666663,-0.04001523,0.00104176,0,0,0,0,0,0.1665329,0.7778277,0.04001523,0,0.7808686,-0.1666663,1033.657,172716
25,1.25,-0.2086662,-0.04211357,0.001096389,0,0,0,0,0,0.2085328,0.9739973,0.04211357,0,0.9787717,-0.2086662,1085.71,145163
30,1.5,-0.250266,-0.04388225,0.001142435,0,0,0,0,0,0.2501327,1.168298,0.04388225,0,1.175177,-0.250266,1129.088,126103
35,1.75,-0.291466,-0.04552827,0.001185287,0,0,0,0,0,0.2913326,1.360732,0.04552827,0,1.370074,-0.291466,1169.159,112331
40,2.0,-0.3335992,-0.04752479,0.001237265,0,0,0,0,0,0.3334659,1.557524,0.04752479,0,1.569781,-0.3335992,1217.994,102442
45,2.25,-0.3750657,-0.0491586,0.0012798,0,0,0,0,0,0.3749324,1.751202,0.0491586,0,1.766717,-0.3750657,1257.388,94244
50,2.5,-0.416799,-0.05089681,0.001325053,0,0,0,0,0,0.4166656,1.946126,0.05089681,0,1.965313,-0.416799,1299.265,87803.2
55,2.75,-0.4586655,-0.05259045,0.001369145,0,0,0,0,0,0.4585322,2.141673,0.05259045,0,2.16494,-0.4586655,1339.822,82441.2
60,3.0,-0.5001321,-0.05377023,0.001399859,0,0,0,0,0,0.4999987,2.335351,0.05377023,0,2.363053,-0.5001321,1367.168,77300.1
65,3.25,-0.5418654,-0.05613166,0.001461337,0,0,0,0,0,0.541732,2.530276,0.05613166,0,2.562838,-0.5418654,1424.361,74478.5
70,3.5,-0.5831986,-0.05751792,0.001497427,0,0,0,0,0,0.5830652,2.723331,0.05751792,0,2.761101,-0.5831986,1456.647,70907.7
75,3.75,-0.6253318,-0.05857394,0.00152492,0,0,0,0,0,0.6251985,2.920124,0.05857394,0,2.963608,-0.6253318,1480.39,67343.2
80,4.0,-0.6667984,-0.06074937,0.001581555,0,0,0,0,0,0.666665,3.113802,0.06074937,0,3.163311,-0.6667984,1532.309,65500
85,4.25,-0.7083983,-0.06155916,0.001602637,0,0,0,0,0,0.708265,3.308104,0.06155916,0,3.364059,-0.7083983,1549.621,62474.7
90,4.5,-0.7502649,-0.0645025,0.001679264,0,0,0,0,0,0.7501315,3.50365,0.06450249,0,3.5665,-0.7502649,1620.429,61808.2
95,4.75,-0.7918648,-0.06509827,0.001694775,0,0,0,0,0,0.7917314,3.697952,0.06509826,0,3.768059,-0.7918648,1632.103,59101.5
100,5.0,-0.8334646,-0.06668138,0.00173599,0,0,0,0,0,0.8333313,3.892253,0.06668139,0,3.970026,-0.8334646,1668.421,57516.7
105,5.25,-0.8751979,-0.06764959,0.001761196,0,0,0,0,0,0.8750646,4.087177,0.06764959,0,4.17305,-0.8751979,1689.213,55569
110,5.5,-0.9167978,-0.06941433,0.00180714,0,0,0,0,0,0.9166644,4.281478,0.06941433,0,4.375836,-0.9167978,1729.767,54431
115,5.75,-0.9583976,-0.07077498,0.001842563,0,0,0,0,0,0.9582643,4.475779,0.07077498,0,4.579035,-0.9583976,1760.094,53088.7
120,6.0,-1.000131,-0.07264574,0.001891266,0,0,0,0,0,0.9999976,4.670703,0.07264574,0,4.783301,-1.000131,1802.931,52217.8
125,6.25,-1.041864,-0.07350386,0.001913607,0,0,0,0,0,1.041731,4.865627,0.07350386,0,4.987984,-1.041864,1820.498,50718
130,6.5,-1.083331,-0.07631932,0.001986905,0,0,0,0,0,1.083197,5.059306,0.07631932,0,5.191776,-1.083331,1886.381,50644.7
135,6.75,-1.125331,-0.07671592,0.00199723,0,0,0,0,0,1.125197,5.255475,0.07671592,0,5.398613,-1.125331,1892.266,49007.7
140,7.0,-1.166931,-0.07846477,0.00204276,0,0,0,0,0,1.166797,5.449777,0.07846477,0,5.603903,-1.166931,1931.434,48337.8
145,7.25,-1.208264,-0.08004858,0.002083993,0,0,0,0,0,1.20813,5.642832,0.08004858,0,5.808295,-1.208264,1966.397,47626.3
150,7.5,-1.250264,-0.08072048,0.002101485,0,0,0,0,0,1.25013,5.839002,0.08072048,0,6.016413,-1.250264,1978.779,46412.6
155,7.75,-1.291997,-0.08186488,0.002131279,0,0,0,0,0,1.291864,6.033926,0.08186489,0,6.223638,-1.291997,2002.679,45550
160,8.0,-1.333463,-0.08372663,0.002179747,0,0,0,0,0,1.33333,6.227604,0.08372663,0,6.429966,-1.333463,2044.001,45137.1
165,8.25,-1.37533,-0.08548742,0.002225588,0,0,0,0,0,1.375197,6.423151,0.08548742,0,6.638718,-1.37533,2082.635,44683.2
170,8.5,-1.416797,-0.0863117,0.002247047,0,0,0,0,0,1.416663,6.61683,0.0863117,0,6.845905,-1.416797,2098.364,43793.6
175,8.75,-1.458663,-0.0880803,0.002293091,0,0,0,0,0,1.45853,6.812376,0.08808029,0,7.055527,-1.458663,2136.877,43408.1
180,9.0,-1.499996,-0.08925648,0.002323712,0,0,0,0,0,1.499863,7.005432,0.08925647,0,7.26291,-1.499996,2160.926,42775.5
185,9.25,-1.54173,-0.09046015,0.002355049,0,0,0,0,0,1.541596,7.200356,0.09046015,0,7.472738,-1.54173,2185.477,42178.8
190,9.5,-1.58373,-0.09168567,0.002386954,0,0,0,0,0,1.583596,7.396526,0.09168567,0,7.684353,-1.58373,2210.402,41616.4
195,9.75,-1.624929,-0.0935654,0.002435891,0,0,0,0,0,1.624796,7.588959,0.0935654,0,7.892372,-1.624929,2251.032,41392.7
200,10.0,-1.666929,-0.09383747,0.002442974,0,0,0,0,0,1.666796,7.785128,0.09383747,0,8.104877,-1.666929,2252.785,40467
205,10.25,-1.708662,-0.09528965,0.00248078,0,0,0,0,0,1.708529,7.980052,0.09528965,0,8.31648,-1.708662,2282.813,40089.5
210,10.5,-1.750129,-0.09629293,0.0025069,0,0,0,0,0,1.749996,8.173731,0.09629293,0,8.527177,-1.750129,2301.992,39551.7
215,10.75,-1.791862,-0.09837665,0.002561148,0,0,0,0,0,1.791729,8.368654,0.09837665,0,8.739677,-1.791862,2346.814,39466.4
220,11.0,-1.833596,-0.09896905,0.00257657,0,0,0,0,0,1.833462,8.563579,0.09896906,0,8.95263,-1.833596,2355.924,38800.3
225,11.25,-1.875195,-0.1004379,0.002614811,0,0,0,0,0,1.875062,8.75788,0.1004379,0,9.165355,-1.875195,2385.809,38502.5
230,11.5,-1.916662,-0.101613,0.002645403,0,0,0,0,0,1.916529,8.951558,0.101613,0,9.377849,-1.916662,2408.598,38110.2
235,11.75,-1.958662,-0.1032989,0.002689293,0,0,0,0,0,1.958529,9.147728,0.1032989,0,9.593538,-1.958662,2443.284,37911.7
240,12.0,-2.000128,-0.1045541,0.002721972,0,0,0,0,0,1.999995,9.341406,0.1045541,0,9.806945,-2.000128,2467.702,37576.8
245,12.25,-2.041728,-0.1056583,0.002750719,0,0,0,0,0,2.041595,9.535708,0.1056583,0,10.0215,-2.041728,2488.419,37199.9
250,12.5,-2.083595,-0.1066303,0.002776023,0,0,0,0,0,2.083462,9.731255,0.1066303,0,10.23789,-2.083595,2505.881,36787.7
255,12.75,-2.125062,-0.1084155,0.002822499,0,0,0,0,0,2.124928,9.924933,0.1084155,0,10.45268,-2.125062,2542.368,36673.7
260,13.0,-2.166795,-0.1089657,0.002836823,0,0,0,0,0,2.166662,10.11986,0.1089657,0,10.66932,-2.166795,2549.741,36149.8
265,13.25,-2.208528,-0.1107411,0.002883045,0,0,0,0,0,2.208395,10.31478,0.1107411,0,10.88642,-2.208528,2585.665,36044.5
270,13.5,-2.250128,-0.1119034,0.002913303,0,0,0,0,0,2.249995,10.50908,0.1119034,0,11.1033,-2.250128,2607.142,35749.4
275,13.75,-2.291728,-0.1130042,0.002941963,0,0,0,0,0,2.291595,10.70338,0.1130042,0,11.32066,-2.291728,2627.073,35445.7
280,14.0,-2.333461,-0.1138889,0.002964994,0,0,0,0,0,2.333328,10.89831,0.1138889,0,11.53919,-2.333461,2641.86,35084.3
285,14.25,-2.375328,-0.1155625,0.003008564,0,0,0,0,0,2.375194,11.09385,0.1155625,0,11.75889,-2.375328,2674.799,34972.4
290,14.5,-2.416794,-0.1163898,0.003030104,0,0,0,0,0,2.416661,11.28753,0.1163898,0,11.97698,-2.416794,2688.08,34618.4
295,14.75,-2.458527,-0.1174548,0.003057831,0,0,0,0,0,2.458394,11.48246,0.1174548,0,12.19694,-2.458527,2706.717,34342.1
300,15.0,-2.50026,-0.1193689,0.003107662,0,0,0,0,0,2.500127,11.67738,0.1193689,0,12.41739,-2.50026,2744.768,34319.1
305,15.25,-2.541727,-0.1198942,0.003121339,0,0,0,0,0,2.541594,11.87106,0.1198942,0,12.63692,-2.541727,2750.803,33907.8
310,15.5,-2.58346,-0.1213992,0.00316052,0,0,0,0,0,2.583327,12.06598,0.1213992,0,12.85835,-2.58346,2779.172,33778.8
315,15.75,-2.625194,-0.1224347,0.003187477,0,0,0,0,0,2.625061,12.26091,0.1224347,0,13.08026,-2.625194,2796.664,33525.3
320,16.0,-2.666794,-0.1236368,0.003218774,0,0,0,0,0,2.66666,12.45521,0.1236368,0,13.30196,-2.666794,2817.869,33326.3
325,16.25,-2.708527,-0.1243442,0.003237189,0,0,0,0,0,2.708394,12.65013,0.1243442,0,13.52487,-2.708527,2827.681,33000.5
330,16.5,-2.75026,-0.125526,0.003267956,0,0,0,0,0,2.750127,12.84506,0.125526,0,13.74827,-2.75026,2848.185,32808.6
335,16.75,-2.791993,-0.1263373,0.003289077,0,0,0,0,0,2.79186,13.03998,0.1263373,0,13.97217,-2.791993,2860.182,32527.1
340,17.0,-2.833193,-0.127316,0.003314558,0,0,0,0,0,2.83306,13.23241,0.127316,0,14.19371,-2.833193,2875.962,32302.4
345,17.25,-2.875326,-0.1283042,0.003340283,0,0,0,0,0,2.875193,13.42921,0.1283042,0,14.42077,-2.875326,2891.71,32076.1
350,17.5,-2.916793,-0.1290403,0.003359447,0,0,0,0,0,2.91666,13.62288,0.1290403,0,14.64474,-2.916793,2901.794,31801.4
355,17.75,-2.95826,-0.1299493,0.003383112,0,0,0,0,0,2.958126,13.81656,0.1299493,0,14.86922,-2.95826,2915.682,31576.5
360,18.0,-3.000393,-0.1308336,0.003406135,0,0,0,0,0,3.000259,14.01335,0.1308336,0,15.09782,-3.000393,2928.821,31345
365,18.25,-3.041859,-0.1315912,0.00342586,0,0,0,0,0,3.041726,14.20703,0.1315912,0,15.32332,-3.041859,2939.147,31096.7
370,18.5,-3.083326,-0.1322881,0.003444001,0,0,0,0,0,3.083193,14.40071,0.1322881,0,15.54932,-3.083326,2948.04,30840.9
375,18.75,-3.125326,-0.1331479,0.003466385,0,0,0,0,0,3.125192,14.59688,0.1331479,0,15.77876,-3.125326,2960.401,30624.2
380,19.0,-3.166792,-0.1338972,0.003485894,0,0,0,0,0,3.166659,14.79056,0.1338972,0,16.0058,-3.166792,2970.31,30393.3
385,19.25,-3.208659,-0.1342648,0.003495463,0,0,0,0,0,3.208525,14.98611,0.1342648,0,16.23555,-3.208659,2971.629,30079
390,19.5,-3.249992,-0.1349953,0.003514481,0,0,0,0,0,3.249859,15.17916,0.1349953,0,16.4629,-3.249992,2981.013,29858
395,19.75,-3.291859,-0.1353546,0.003523834,0,0,0,0,0,3.291725,15.37471,0.1353546,0,16.6937,-3.291859,2982.055,29556.8
400,20.0,-3.333592,-0.1359577,0.003539536,0,0,0,0,0,3.333458,15.56963,0.1359577,0,16.92431,-3.333592,2988.444,29316.8
405,20.25,-3.375059,-0.1363672,0.003550196,0,0,0,0,0,3.374925,15.76331,0.1363672,0,17.15396,-3.375059,2990.568,29043.8
410,20.5,-3.416925,-0.1366783,0.003558296,0,0,0,0,0,3.416791,15.95886,0.1366783,0,17.38637,-3.416925,2990.433,28753.4
415,20.75,-3.458525,-0.1369703,0.003565898,0,0,0,0,0,3.458392,16.15316,0.1369703,0,17.61784,-3.458525,2989.893,28468.2
420,21.0,-3.499991,-0.1371763,0.003571262,0,0,0,0,0,3.499858,16.34684,0.1371763,0,17.8491,-3.499991,2987.473,28173.2
425,21.25,-3.541858,-0.1373478,0.003575727,0,0,0,0,0,3.541725,16.54239,0.1373478,0,18.08313,-3.541858,2984.216,27875
430,21.5,-3.583458,-0.1375485,0.003580951,0,0,0,0,0,3.583325,16.73669,0.1375485,0,18.31621,-3.583458,2981.618,27591.6
435,21.75,-3.625058,-0.1377426,0.003586004,0,0,0,0,0,3.624925,16.93099,0.1377426,0,18.54985,-3.625058,2978.858,27313.4
440,22.0,-3.666791,-0.1379076,0.003590301,0,0,0,0,0,3.666658,17.12591,0.1379076,0,18.78477,-3.666791,2975.429,27034.9
445,22.25,-3.708658,-0.1376898,0.003584631,0,0,0,0,0,3.708524,17.32146,0.1376898,0,19.02101,-3.708658,2963.72,26687.5
450,22.5,-3.749991,-0.1375715,0.003581551,0,0,0,0,0,3.749858,17.51451,0.1375715,0,19.25478,-3.749991,2954.26,26370.7
455,22.75,-3.791858,-0.1376561,0.003583753,0,0,0,0,0,3.791724,17.71006,0.1376561,0,19.49213,-3.791858,2949.068,26095.5
460,23.0,-3.833724,-0.1373164,0.003574908,0,0,0,0,0,3.833591,17.90561,0.1373164,0,19.73005,-3.833724,2934.799,25746.8
465,23.25,-3.874924,-0.1369363,0.003565014,0,0,0,0,0,3.87479,18.09804,0.1369363,0,19.96473,-3.874924,2919.817,25402.6
470,23.5,-3.916924,-0.137305,0.003574612,0,0,0,0,0,3.91679,18.29421,0.137305,0,20.20453,-3.916924,2920.665,25197.8
475,23.75,-3.958524,-0.1370714,0.003568531,0,0,0,0,0,3.95839,18.48851,0.1370714,0,20.44262,-3.958524,2908.763,24890.6
480,24.0,-3.99999,-0.1376122,0.003582609,0,0,0,0,0,3.999857,18.68219,0.1376122,0,20.68051,-3.99999,2913.299,24729.8
485,24.25,-4.041857,-0.1375595,0.003581237,0,0,0,0,0,4.041724,18.87774,0.1375595,0,20.92128,-4.041857,2905.18,24464.2
490,24.5,-4.083323,-0.1376709,0.003584138,0,0,0,0,0,4.08319,19.07141,0.1376709,0,21.16031,-4.083323,2900.593,24235.4
495,24.75,-4.12519,-0.1374611,0.003578675,0,0,0,0,0,4.125057,19.26696,0.1374611,0,21.40223,-4.12519,2889.173,23952.8
500,25.0,-4.166523,-0.1368731,0.003563367,0,0,0,0,0,4.16639,19.46002,0.1368731,0,21.64165,-4.166523,2869.935,23613.8
505,25.25,-4.208523,-0.1370191,0.00356717,0,0,0,0,0,4.20839,19.65619,0.1370191,0,21.88551,-4.208523,2866.0,23403
510,25.5,-4.250256,-0.1361878,0.003545527,0,0,0,0,0,4.250123,19.85111,0.1361878,0,22.12842,-4.250256,2841.701,23032.7
515,25.75,-4.29159,-0.1361389,0.003544253,0,0,0,0,0,4.291457,20.04417,0.1361389,0,22.36958,-4.29159,2833.837,22802.6
520,26.0,-4.33359,-0.1357663,0.003534554,0,0,0,0,0,4.333456,20.24034,0.1357663,0,22.61523,-4.33359,2819.148,22519.8
525,26.25,-4.375456,-0.1359913,0.00354041,0,0,0,0,0,4.375322,20.43588,0.1359913,0,22.8607,-4.375456,2816.896,22341.3
530,26.5,-4.416656,-0.1356151,0.003530618,0,0,0,0,0,4.416522,20.62831,0.1356151,0,23.10285,-4.416656,2802.311,22071.7
535,26.75,-4.458522,-0.1360564,0.003542106,0,0,0,0,0,4.458389,20.82386,0.1360564,0,23.34952,-4.458522,2804.503,21935.5
540,27.0,-4.500256,-0.1358974,0.003537966,0,0,0,0,0,4.500123,21.01879,0.1358974,0,23.59602,-4.500256,2794.328,21706.7
545,27.25,-4.541989,-0.1367267,0.003559556,0,0,0,0,0,4.541855,21.21371,0.1367267,0,23.84312,-4.541989,2804.442,21638.5
550,27.5,-4.583456,-0.1370771,0.003568679,0,0,0,0,0,4.583323,21.40739,0.1370771,0,24.08925,-4.583456,2804.718,21497.7
555,27.75,-4.625322,-0.1377056,0.003585041,0,0,0,0,0,4.625189,21.60294,0.1377056,0,24.33837,-4.625322,2810.567,21400.8
560,28.0,-4.666789,-0.1376081,0.003582504,0,0,0,0,0,4.666655,21.79661,0.1376081,0,24.58572,-4.666789,2801.639,21195.6
565,28.25,-4.708388,-0.1385918,0.003608112,0,0,0,0,0,4.708255,21.99092,0.1385918,0,24.83449,-4.708388,2814.655,21158.5
570,28.5,-4.750255,-0.1385394,0.003606749,0,0,0,0,0,4.750122,22.18646,0.1385394,0,25.08548,-4.750255,2806.539,20964.1
575,28.75,-4.791589,-0.1389567,0.003617614,0,0,0,0,0,4.791455,22.37952,0.1389567,0,25.33389,-4.791589,2808.009,20845.8
580,29.0,-4.833588,-0.1393298,0.003627327,0,0,0,0,0,4.833455,22.57569,0.1393298,0,25.58694,-4.833588,2808.433,20720.2
585,29.25,-4.875321,-0.1398703,0.003641398,0,0,0,0,0,4.875188,22.77061,0.1398703,0,25.83901,-4.875321,2812.229,20622.5
590,29.5,-4.916655,-0.1401672,0.003649126,0,0,0,0,0,4.916522,22.96367,0.1401672,0,26.08931,-4.916655,2811.153,20492.5
595,29.75,-4.958521,-0.1408185,0.003666083,0,0,0,0,0,4.958388,23.15921,0.1408185,0,26.34346,-4.958521,2817.047,20413.9
600,30.0,-5.000121,-0.1416168,0.003686866,0,0,0,0,0,4.999988,23.35352,0.1416168,0,26.59665,-5.000121,2825.854,20358.8
605,30.25,-5.041988,-0.1416804,0.003688522,0,0,0,0,0,5.041854,23.54906,0.1416804,0,26.8521,-5.041988,2819.91,20198.9
610,30.5,-5.083454,-0.142653,0.003713843,0,0,0,0,0,5.083321,23.74274,0.142653,0,27.10576,-5.083454,2832.075,20171.6
615,30.75,-5.125187,-0.1421653,0.003701145,0,0,0,0,0,5.125054,23.93766,0.1421653,0,27.3617,-5.125187,2815.177,19939
620,31.0,-5.166921,-0.1427483,0.003716325,0,0,0,0,0,5.166787,24.13259,0.1427483,0,27.6183,-5.166921,2819.479,19859
625,31.25,-5.208254,-0.1430489,0.003724149,0,0,0,0,0,5.208121,24.32565,0.1430489,0,27.87309,-5.208254,2818.226,19742.9
630,31.5,-5.250121,-0.1432939,0.003730527,0,0,0,0,0,5.249987,24.52119,0.1432939,0,28.13183,-5.250121,2815.757,19619
635,31.75,-5.291987,-0.1438961,0.003746206,0,0,0,0,0,5.291854,24.71674,0.1438961,0,28.39124,-5.291987,2820.266,19545.6
640,32.0,-5.33332,-0.1442284,0.003754857,0,0,0,0,0,5.333187,24.90979,0.1442284,0,28.64801,-5.33332,2819.53,19438.9
645,32.25,-5.375187,-0.1449566,0.003773814,0,0,0,0,0,5.375053,25.10534,0.1449566,0,28.90876,-5.375187,2826.385,19384.9
650,32.5,-5.41692,-0.1455855,0.003790188,0,0,0,0,0,5.416787,25.30026,0.1455855,0,29.16936,-5.41692,2831.261,19319
655,32.75,-5.45852,-0.1462296,0.003806957,0,0,0,0,0,5.458387,25.49457,0.1462296,0,29.42982,-5.45852,2836.39,19256.5
660,33.0,-5.499853,-0.1468803,0.003823897,0,0,0,0,0,5.49972,25.68762,0.1468803,0,29.68927,-5.499853,2841.629,19196.9
665,33.25,-5.541853,-0.1478397,0.003848874,0,0,0,0,0,5.541719,25.88379,0.1478397,0,29.95359,-5.541853,2852.639,19175.8
670,33.5,-5.583453,-0.1485841,0.003868254,0,0,0,0,0,5.58332,26.07809,0.1485841,0,30.2161,-5.583453,2859.487,19128.8
675,33.75,-5.625053,-0.1495299,0.003892878,0,0,0,0,0,5.62492,26.27239,0.1495299,0,30.47929,-5.625053,2870.125,19108.2
680,34.0,-5.667053,-0.1502609,0.003911908,0,0,0,0,0,5.66692,26.46856,0.1502609,0,30.74572,-5.667053,2876.482,19059.3
685,34.25,-5.708519,-0.1518876,0.003954257,0,0,0,0,0,5.708386,26.66224,0.1518876,0,31.00946,-5.708519,2899.964,19125.7
690,34.5,-5.750119,-0.1518417,0.003953062,0,0,0,0,0,5.749986,26.85654,0.1518417,0,31.27475,-5.750119,2891.406,18981.5
695,34.75,-5.791853,-0.1533594,0.003992574,0,0,0,0,0,5.791719,27.05147,0.1533594,0,31.5416,-5.791853,2912.524,19033.1
700,35.0,-5.833586,-0.1535195,0.003996741,0,0,0,0,0,5.833453,27.24639,0.1535195,0,31.80917,-5.833586,2907.774,18916.7
705,35.25,-5.875052,-0.1547161,0.004027896,0,0,0,0,0,5.874919,27.44007,0.1547161,0,32.07574,-5.875052,2922.638,18929.6
710,35.5,-5.916652,-0.1557386,0.004054514,0,0,0,0,0,5.916519,27.63437,0.1557386,0,32.34387,-5.916652,2934.075,18920.7
715,35.75,-5.958652,-0.1572029,0.004092635,0,0,0,0,0,5.958519,27.83054,0.1572029,0,32.61532,-5.958652,2953.633,18964
720,36.0,-6.000252,-0.1580639,0.004115052,0,0,0,0,0,6.000118,28.02484,0.1580639,0,32.88491,-6.000252,2961.815,18935.6
725,36.25,-6.041719,-0.1589939,0.004139263,0,0,0,0,0,6.041585,28.21852,0.1589939,0,33.15437,-6.041719,2971.224,18916.3
730,36.5,-6.083585,-0.160175,0.004170012,0,0,0,0,0,6.083452,28.41407,0.160175,0,33.42716,-6.083585,2985.142,18925.7
735,36.75,-6.125185,-0.1607795,0.004185749,0,0,0,0,0,6.125052,28.60837,0.1607795,0,33.69895,-6.125185,2988.275,18868.1
740,37.0,-6.166785,-0.161977,0.004216925,0,0,0,0,0,6.166651,28.80267,0.161977,0,33.97149,-6.166785,3002.338,18880.4
745,37.25,-6.208518,-0.1627845,0.004237948,0,0,0,0,0,6.208385,28.99759,0.1627845,0,34.24564,-6.208518,3009.045,18847
750,37.5,-6.250118,-0.1637805,0.004263878,0,0,0,0,0,6.249985,29.19189,0.1637805,0,34.51967,-6.250118,3019.171,18836.1
755,37.75,-6.291718,-0.1645909,0.004284975,0,0,0,0,0,6.291585,29.3862,0.1645909,0,34.79446,-6.291718,3025.784,18804.1
760,38.0,-6.333451,-0.1659314,0.004319876,0,0,0,0,0,6.333318,29.58112,0.1659314,0,35.07088,-6.333451,3042.008,18832.4
765,38.25,-6.375318,-0.1664608,0.004333656,0,0,0,0,0,6.375185,29.77667,0.1664608,0,35.34896,-6.375318,3043.238,18768.4
770,38.5,-6.416651,-0.166574,0.004336605,0,0,0,0,0,6.416518,29.96972,0.166574,0,35.62425,-6.416651,3036.937,18660.1
775,38.75,-6.458651,-0.1675504,0.004362025,0,0,0,0,0,6.458518,30.16589,0.1675504,0,35.90477,-6.458651,3046.181,18647.5
780,39.0,-6.500384,-0.1681627,0.004377964,0,0,0,0,0,6.500251,30.36082,0.1681627,0,36.18428,-6.500384,3048.778,18595.5
785,39.25,-6.541584,-0.1683594,0.004383085,0,0,0,0,0,6.541451,30.55325,0.1683594,0,36.46099,-6.541584,3043.91,18500
790,39.5,-6.583717,-0.1691664,0.004404096,0,0,0,0,0,6.583584,30.75004,0.1691664,0,36.74476,-6.583717,3049.834,18469.7
795,39.75,-6.625184,-0.1697409,0.004419051,0,0,0,0,0,6.62505,30.94372,0.1697409,0,37.02483,-6.625184,3051.633,18416.4
800,40.0,-6.666651,-0.1699947,0.00442566,0,0,0,0,0,6.666517,31.1374,0.1699947,0,37.3057,-6.666651,3047.625,18329.2
805,40.25,-6.708517,-0.1699385,0.004424196,0,0,0,0,0,6.708384,31.33294,0.1699385,0,37.59007,-6.708517,3037.965,18208.8
810,40.5,-6.749983,-0.1705632,0.00444046,0,0,0,0,0,6.74985,31.52662,0.1705632,0,37.87252,-6.749983,3040.533,18163.5
815,40.75,-6.79185,-0.1703272,0.004434314,0,0,0,0,0,6.791717,31.72217,0.1703272,0,38.15851,-6.79185,3027.654,18026.5
820,41.0,-6.833317,-0.1707097,0.004444272,0,0,0,0,0,6.833184,31.91585,0.1707097,0,38.44258,-6.833317,3025.845,17957.4
825,41.25,-6.87505,-0.1709703,0.004451058,0,0,0,0,0,6.874916,32.11077,0.1709703,0,38.72928,-6.87505,3021.789,17875.6
830,41.5,-6.91705,-0.1718707,0.004474498,0,0,0,0,0,6.916916,32.30694,0.1718707,0,39.01866,-6.91705,3028.924,17860.6
835,41.75,-6.958249,-0.1726556,0.004494934,0,0,0,0,0,6.958116,32.49937,0.1726556,0,39.30333,-6.958249,3034.109,17836
840,42.0,-7.000383,-0.1736455,0.004520703,0,0,0,0,0,7.000249,32.69617,0.1736455,0,39.5953,-7.000383,3042.607,17830.2
845,42.25,-7.041983,-0.1746609,0.004547138,0,0,0,0,0,7.041849,32.89047,0.1746609,0,39.88441,-7.041983,3051.563,17828.6
850,42.5,-7.08345,-0.1753718,0.004565647,0,0,0,0,0,7.083316,33.08415,0.1753718,0,40.17343,-7.08345,3055.142,17796.3
855,42.75,-7.125049,-0.176471,0.004594264,0,0,0,0,0,7.124916,33.27845,0.176471,0,40.46422,-7.125049,3065.364,17803.3
860,43.0,-7.167049,-0.1773448,0.004617013,0,0,0,0,0,7.166915,33.47462,0.1773448,0,40.75866,-7.167049,3071.486,17786.6
865,43.25,-7.208516,-0.1780406,0.004635126,0,0,0,0,0,7.208382,33.6683,0.1780406,0,41.05022,-7.208516,3074.558,17753.7
870,43.5,-7.249982,-0.1790336,0.004660978,0,0,0,0,0,7.249848,33.86197,0.1790336,0,41.34263,-7.249982,3082.679,17750.6
875,43.75,-7.291982,-0.1799405,0.00468459,0,0,0,0,0,7.291849,34.05815,0.1799406,0,41.63968,-7.291982,3089.106,17737.8
880,44.0,-7.333315,-0.1807935,0.004706796,0,0,0,0,0,7.333182,34.2512,0.1807935,0,41.93288,-7.333315,3094.662,17721.4
885,44.25,-7.375048,-0.1817543,0.004731809,0,0,0,0,0,7.374915,34.44613,0.1817543,0,42.22979,-7.375048,3101.884,17714.7
890,44.5,-7.416915,-0.1827103,0.004756697,0,0,0,0,0,7.416781,34.64167,0.1827103,0,42.52853,-7.416915,3108.898,17707.4
895,44.75,-7.458249,-0.183391,0.004774419,0,0,0,0,0,7.458116,34.83473,0.183391,0,42.82435,-7.458249,3111.263,17674.9
900,45.0,-7.500115,-0.1845801,0.004805378,0,0,0,0,0,7.499982,35.03027,0.1845801,0,43.12488,-7.500115,3122.041,17690.2
905,45.25,-7.541982,-0.1850713,0.004818166,0,0,0,0,0,7.541849,35.22582,0.1850713,0,43.42632,-7.541982,3120.927,17638.8
910,45.5,-7.583448,-0.1865997,0.004857956,0,0,0,0,0,7.583314,35.4195,0.1865997,0,43.72576,-7.583448,3137.293,17687.2
915,45.75,-7.625048,-0.1862381,0.004848542,0,0,0,0,0,7.624914,35.6138,0.1862381,0,44.02708,-7.625048,3121.792,17556.6
920,46.0,-7.666781,-0.1879913,0.004894185,0,0,0,0,0,7.666648,35.80872,0.1879913,0,44.33029,-7.666781,3141.64,17625.4
925,46.25,-7.708648,-0.1879079,0.004892012,0,0,0,0,0,7.708515,36.00427,0.1879079,0,44.63539,-7.708648,3130.679,17521.9
930,46.5,-7.750248,-0.1894128,0.004931191,0,0,0,0,0,7.750114,36.19857,0.1894127,0,44.93946,-7.750248,3146.17,17567.4
935,46.75,-7.791847,-0.1903186,0.004954773,0,0,0,0,0,7.791714,36.39287,0.1903186,0,45.24446,-7.791847,3151.589,17557.2
940,47.0,-7.833715,-0.1917743,0.004992671,0,0,0,0,0,7.83358,36.58842,0.1917743,0,45.55237,-7.833715,3165.932,17597
945,47.25,-7.874914,-0.1928345,0.005020272,0,0,0,0,0,7.874781,36.78086,0.1928345,0,45.8563,-7.874914,3173.773,17601.7
950,47.5,-7.916914,-0.1937684,0.005044586,0,0,0,0,0,7.916781,36.97702,0.1937684,0,46.16708,-7.916914,3179.248,17593.1
955,47.75,-7.958514,-0.1951009,0.005079276,0,0,0,0,0,7.95838,37.17132,0.1951009,0,46.47585,-7.958514,3191.242,17621.5
960,48.0,-8.000114,-0.1963236,0.005111108,0,0,0,0,0,7.999981,37.36563,0.1963236,0,46.7856,-8.000114,3201.311,17639.7
965,48.25,-8.041847,-0.1977872,0.005149211,0,0,0,0,0,8.041715,37.56055,0.1977872,0,47.09729,-8.041847,3215.139,17679
970,48.5,-8.083714,-0.1991258,0.00518406,0,0,0,0,0,8.083581,37.7561,0.1991258,0,47.41096,-8.083714,3226.761,17706.4
975,48.75,-8.12518,-0.2001893,0.005211748,0,0,0,0,0,8.125047,37.94978,0.2001893,0,47.72261,-8.12518,3233.901,17710.2
980,49.0,-8.166647,-0.2014085,0.00524349,0,0,0,0,0,8.166513,38.14345,0.2014085,0,48.03522,-8.166647,3243.442,17727.5
985,49.25,-8.208646,-0.202546,0.005273103,0,0,0,0,0,8.208513,38.33962,0.202546,0,48.35286,-8.208646,3251.415,17736.4
990,49.5,-8.250247,-0.2036966,0.005303058,0,0,0,0,0,8.250113,38.53392,0.2036966,0,48.66848,-8.250247,3259.582,17747.3
995,49.75,-8.29158,-0.2048007,0.005331803,0,0,0,0,0,8.291446,38.72698,0.2048007,0,48.98305,-8.29158,3266.957,17754.5
1000,50.0,-8.333713,-0.2059689,0.005362214,0,0,0,0,0,8.33358,38.92377,0.2059689,0,49.30475,-8.333713,3275.038,17765.5
1005,50.25,-8.375047,-0.2074593,0.005401015,0,0,0,0,0,8.374912,39.11683,0.2074593,0,49.62134,-8.375047,3288.309,17805.7
1010,50.5,-8.416779,-0.2087018,0.005433362,0,0,0,0,0,8.416646,39.31175,0.2087018,0,49.94201,-8.416779,3297.412,17823.6
1015,50.75,-8.458513,-0.2104625,0.005479201,0,0,0,0,0,8.45838,39.50668,0.2104625,0,50.26372,-8.458513,3314.551,17885.2
1020,51.0,-8.500113,-0.2120901,0.005521575,0,0,0,0,0,8.49998,39.70098,0.2120901,0,50.58543,-8.500113,3329.455,17935.3
1025,51.25,-8.541713,-0.2137656,0.005565194,0,0,0,0,0,8.541579,39.89528,0.2137656,0,50.90818,-8.541713,3344.945,17989
1030,51.5,-8.583446,-0.2156362,0.005613895,0,0,0,0,0,8.583312,40.0902,0.2156362,0,51.23301,-8.583446,3363.273,18058.2
1035,51.75,-8.625313,-0.2173854,0.005659434,0,0,0,0,0,8.625179,40.28575,0.2173854,0,51.55995,-8.625313,3379.489,18116.3
1040,52.0,-8.667045,-0.2192902,0.005709024,0,0,0,0,0,8.666912,40.48067,0.2192902,0,51.88691,-8.667045,3397.973,18187
1045,52.25,-8.708379,-0.220786,0.005747964,0,0,0,0,0,8.708246,40.67373,0.220786,0,52.2118,-8.708379,3410.052,18224.2
1050,52.5,-8.750246,-0.2226275,0.005795907,0,0,0,0,0,8.750113,40.86928,0.2226275,0,52.54196,-8.750246,3427.162,18288.3
1055,52.75,-8.791845,-0.2240054,0.005831779,0,0,0,0,0,8.791711,41.06358,0.2240054,0,52.87108,-8.791845,3437.042,18314.4
1060,53.0,-8.833579,-0.2257824,0.005878041,0,0,0,0,0,8.833446,41.2585,0.2257824,0,53.20238,-8.833579,3452.849,18372.5
1065,53.25,-8.875178,-0.2275948,0.005925226,0,0,0,0,0,8.875045,41.4528,0.2275948,0,53.5337,-8.875178,3469.053,18433.1
1070,53.5,-8.916778,-0.2293617,0.005971225,0,0,0,0,0,8.916645,41.64711,0.2293617,0,53.86612,-8.916778,3484.383,18489.6
1075,53.75,-8.958378,-0.2310763,0.006015864,0,0,0,0,0,8.958244,41.8414,0.2310763,0,54.19965,-8.958378,3498.742,18541.3
1080,54.0,-9.000111,-0.2331152,0.006068945,0,0,0,0,0,8.999977,42.03633,0.2331152,0,54.53537,-9.000111,3517.784,18618.1
1085,54.25,-9.041978,-0.2346804,0.006109694,0,0,0,0,0,9.041845,42.23188,0.2346804,0,54.87331,-9.041978,3529.455,18656.4
1090,54.5,-9.083444,-0.2365714,0.006158925,0,0,0,0,0,9.083311,42.42555,0.2365714,0,55.20914,-9.083444,3545.967,18720.8
1095,54.75,-9.125178,-0.2381758,0.006200692,0,0,0,0,0,9.125045,42.62048,0.2381758,0,55.54827,-9.125178,3557.927,18761.6
1100,55.0,-9.166911,-0.2402408,0.006254453,0,0,0,0,0,9.166778,42.8154,0.2402408,0,55.88856,-9.166911,3576.584,18838.1
1105,55.25,-9.208244,-0.241883,0.006297207,0,0,0,0,0,9.208111,43.00846,0.241883,0,56.22673,-9.208244,3588.876,18881.7
1110,55.5,-9.250377,-0.2441624,0.006356548,0,0,0,0,0,9.250244,43.20525,0.2441624,0,56.57263,-9.250377,3610.186,18972.9
1115,55.75,-9.291978,-0.2463466,0.006413413,0,0,0,0,0,9.291843,43.39955,0.2463466,0,56.91532,-9.291978,3630.02,19056.9
1120,56.0,-9.333311,-0.2484779,0.006468899,0,0,0,0,0,9.333178,43.59261,0.2484779,0,57.257,-9.333311,3648.937,19136.6
1125,56.25,-9.375177,-0.250762,0.006528364,0,0,0,0,0,9.375044,43.78815,0.250762,0,57.60427,-9.375177,3669.714,19226.3
1130,56.5,-9.416777,-0.2531228,0.006589824,0,0,0,0,0,9.416642,43.98245,0.2531228,0,57.95052,-9.416777,3691.458,19321.6
1135,56.75,-9.45851,-0.255334,0.006647391,0,0,0,0,0,9.458377,44.17738,0.255334,0,58.2991,-9.45851,3710.748,19404.4
1140,57.0,-9.499977,-0.2577879,0.006711277,0,0,0,0,0,9.499845,44.37106,0.2577879,0,58.64666,-9.499977,3733.412,19505.3
1145,57.25,-9.541843,-0.2596533,0.006759839,0,0,0,0,0,9.54171,44.5666,0.2596533,0,58.9988,-9.541843,3747.208,19560.3
1150,57.5,-9.583577,-0.2619988,0.006820904,0,0,0,0,0,9.583444,44.76153,0.2619988,0,59.35105,-9.583577,3767.763,19651
1155,57.75,-9.62491,-0.2638526,0.006869164,0,0,0,0,0,9.624777,44.95458,0.2638526,0,59.70116,-9.62491,3781.16,19705.1
1160,58.0,-9.666909,-0.2662025,0.006930342,0,0,0,0,0,9.666777,45.15075,0.2662025,0,60.05817,-9.666909,3801.241,19794.2
1165,58.25,-9.708643,-0.2683828,0.006987106,0,0,0,0,0,9.708509,45.34568,0.2683828,0,60.41419,-9.708643,3818.755,19870.5
1170,58.5,-9.75011,-0.2703211,0.007037567,0,0,0,0,0,9.749977,45.53936,0.2703211,0,60.76919,-9.75011,3832.704,19928.9
1175,58.75,-9.791843,-0.2726084,0.007097114,0,0,0,0,0,9.79171,45.73428,0.2726084,0,61.12775,-9.791843,3851.3,20011.9
1180,59.0,-9.833709,-0.2746608,0.007150548,0,0,0,0,0,9.833576,45.92983,0.2746608,0,61.48875,-9.833709,3866.313,20076.7
1185,59.25,-9.875176,-0.2764093,0.007196067,0,0,0,0,0,9.875043,46.12351,0.2764093,0,61.8476,-9.875176,3876.988,20119.7
1190,59.5,-9.916776,-0.2783696,0.007247101,0,0,0,0,0,9.916643,46.31781,0.2783695,0,62.20889,-9.916776,3890.403,20177.4
1195,59.75,-9.958643,-0.280086,0.007291787,0,0,0,0,0,9.958509,46.51336,0.280086,0,62.57382,-9.958643,3900.132,20216.4
1200,60.0,-10.00011,-0.282015,0.007342007,0,0,0,0,0,9.999975,46.70703,0.282015,0,62.93658,-10.00011,3912.774,20271.3
1205,60.25,-10.04171,-0.2837555,0.00738732,0,0,0,0,0,10.04157,46.90133,0.2837555,0,63.30183,-10.04171,3922.568,20311.9
1210,60.5,-10.08371,-0.2855874,0.007435011,0,0,0,0,0,10.08358,47.0975,0.2855874,0,63.67197,-10.08371,3933.306,20357.8
1215,60.75,-10.12491,-0.2869376,0.007470161,0,0,0,0,0,10.12478,47.28994,0.2869376,0,64.03638,-10.12491,3937.527,20370.9
1220,61.0,-10.16678,-0.2889225,0.007521837,0,0,0,0,0,10.16664,47.48549,0.2889225,0,64.40806,-10.16678,3950.056,20427.3
1225,61.25,-10.20878,-0.2902061,0.007555255,0,0,0,0,0,10.20864,47.68165,0.2902061,0,64.78231,-10.20878,3952.785,20433.6
1230,61.5,-10.24998,-0.2915719,0.007590813,0,0,0,0,0,10.24984,47.87408,0.2915719,0,65.15079,-10.24998,3956.781,20447.3
1235,61.75,-10.29184,-0.2931081,0.007630805,0,0,0,0,0,10.29171,48.06963,0.2931081,0,65.52665,-10.29184,3962.705,20471.4
1240,62.0,-10.33344,-0.2949643,0.00767913,0,0,0,0,0,10.33331,48.26393,0.2949643,0,65.9015,-10.33344,3972.88,20518.1
1245,62.25,-10.37531,-0.2967923,0.007726721,0,0,0,0,0,10.37517,48.45948,0.2967923,0,66.28019,-10.37531,3982.392,20562
1250,62.5,-10.41691,-0.2986702,0.007775611,0,0,0,0,0,10.41677,48.65378,0.2986702,0,66.65789,-10.41691,3992.482,20609.4
1255,62.75,-10.45851,-0.3004377,0.007821626,0,0,0,0,0,10.45837,48.84808,0.3004377,0,67.03701,-10.45851,4000.912,20648.9
1260,63.0,-10.50037,-0.3029201,0.007886251,0,0,0,0,0,10.50024,49.04363,0.3029201,0,67.42004,-10.50037,4018.548,20736.5
1265,63.25,-10.54157,-0.30501,0.007940661,0,0,0,0,0,10.54144,49.23606,0.30501,0,67.7984,-10.54157,4030.992,20798
1270,63.5,-10.58344,-0.3072643,0.007999349,0,0,0,0,0,10.58331,49.43161,0.3072643,0,68.18435,-10.58344,4045.142,20868.8
1275,63.75,-10.62517,-0.3098983,0.008067923,0,0,0,0,0,10.62504,49.62653,0.3098983,0,68.57056,-10.62517,4064.092,20965.1
1280,64.0,-10.66677,-0.3119948,0.008122504,0,0,0,0,0,10.66664,49.82083,0.3119948,0,68.95702,-10.66677,4075.805,21024.6
1285,64.25,-10.70851,-0.3144336,0.008185997,0,0,0,0,0,10.70837,50.01576,0.3144336,0,69.34624,-10.70851,4091.708,21106.3
1290,64.5,-10.75037,-0.3167581,0.008246511,0,0,0,0,0,10.75024,50.2113,0.3167581,0,69.73822,-10.75037,4105.83,21179.6
1295,64.75,-10.79197,-0.3185463,0.008293065,0,0,0,0,0,10.79184,50.40561,0.3185463,0,70.12925,-10.79197,4112.895,21217
1300,65.0,-10.83331,-0.3207024,0.008349199,0,0,0,0,0,10.83317,50.59866,0.3207024,0,70.51927,-10.83331,4124.616,21279.1
1305,65.25,-10.87531,-0.3226158,0.008399012,0,0,0,0,0,10.87517,50.79483,0.3226158,0,70.91716,-10.87531,4132.748,21323.4
1310,65.5,-10.91677,-0.324197,0.008440177,0,0,0,0,0,10.91664,50.98851,0.324197,0,71.31154,-10.91677,4136.656,21346.5
1315,65.75,-10.95824,-0.3264163,0.008497954,0,0,0,0,0,10.95811,51.18219,0.3264163,0,71.7075,-10.95824,4148.515,21411.3
1320,66.0,-11.00037,-0.3277366,0.008532328,0,0,0,0,0,11.00024,51.37898,0.3277366,0,72.11143,-11.00037,4148.504,21415.6
1325,66.25,-11.04171,-0.3299652,0.008590346,0,0,0,0,0,11.04157,51.57204,0.3299652,0,72.50928,-11.04171,4160.13,21480.5
1330,66.5,-11.08344,-0.3315675,0.008632063,0,0,0,0,0,11.08331,51.76696,0.3315676,0,72.9126,-11.08344,4163.506,21503.5
1335,66.75,-11.12517,-0.3341402,0.008699039,0,0,0,0,0,11.12504,51.96188,0.3341402,0,73.31754,-11.12517,4178.854,21589.1
1340,67.0,-11.16664,-0.335925,0.008745506,0,0,0,0,0,11.16651,52.15556,0.335925,0,73.72154,-11.16664,4184.238,21623.8
1345,67.25,-11.20851,-0.3382244,0.008805368,0,0,0,0,0,11.20837,52.35111,0.3382244,0,74.13109,-11.20851,4195.66,21690.5
1350,67.5,-11.25011,-0.3398747,0.008848331,0,0,0,0,0,11.24997,52.54541,0.3398747,0,74.5397,-11.25011,4198.939,21715.7
1355,67.75,-11.29184,-0.3416604,0.008894821,0,0,0,0,0,11.29171,52.74034,0.3416604,0,74.9513,-11.29184,4203.662,21749.1
1360,68.0,-11.33357,-0.3433042,0.008937617,0,0,0,0,0,11.33344,52.93526,0.3433042,0,75.36461,-11.33357,4206.466,21773.3
1365,68.25,-11.37504,-0.3452423,0.008988072,0,0,0,0,0,11.37491,53.12894,0.3452423,0,75.77697,-11.37504,4212.805,21816.4
1370,68.5,-11.41691,-0.3469989,0.009033804,0,0,0,0,0,11.41677,53.32449,0.3469989,0,76.19505,-11.41691,4216.575,21847
1375,68.75,-11.45851,-0.3487924,0.009080496,0,0,0,0,0,11.45837,53.51879,0.3487924,0,76.6122,-11.45851,4220.724,21880.2
1380,69.0,-11.50011,-0.3505659,0.009126667,0,0,0,0,0,11.49997,53.71309,0.3505659,0,77.03108,-11.50011,4224.453,21911.9
1385,69.25,-11.54197,-0.3525367,0.009177975,0,0,0,0,0,11.54184,53.90863,0.3525367,0,77.45446,-11.54197,4230.254,21955.2
1390,69.5,-11.58344,-0.3540453,0.009217251,0,0,0,0,0,11.58331,54.10231,0.3540453,0,77.87554,-11.58344,4230.505,21970.2
1395,69.75,-11.62504,-0.3559685,0.009267319,0,0,0,0,0,11.62491,54.29662,0.3559685,0,78.29978,-11.62504,4235.479,22010.5
1400,70.0,-11.66664,-0.3582058,0.009325567,0,0,0,0,0,11.6665,54.49091,0.3582058,0,78.72582,-11.66664,4243.98,22069.8
1405,70.25,-11.70864,-0.3597907,0.009366828,0,0,0,0,0,11.7085,54.68708,0.3597907,0,79.15781,-11.70864,4244.383,22088
1410,70.5,-11.74997,-0.3616785,0.009415976,0,0,0,0,0,11.74984,54.88014,0.3616785,0,79.58477,-11.74997,4248.475,22125.8
1415,70.75,-11.79197,-0.3632805,0.009457679,0,0,0,0,0,11.79184,55.07631,0.3632804,0,80.02049,-11.79197,4248.739,22144.6
1420,71.0,-11.83384,-0.3651379,0.009506037,0,0,0,0,0,11.8337,55.27186,0.3651379,0,80.45673,-11.83384,4251.874,22179.1
1425,71.25,-11.87504,-0.3664615,0.009540495,0,0,0,0,0,11.8749,55.46429,0.3664615,0,80.88789,-11.87504,4248.927,22182.3
1430,71.5,-11.91704,-0.3682506,0.009587072,0,0,0,0,0,11.9169,55.66046,0.3682506,0,81.32934,-11.91704,4250.864,22212
1435,71.75,-11.9585,-0.3706507,0.009649558,0,0,0,0,0,11.95837,55.85414,0.3706507,0,81.7671,-11.9585,4259.881,22279.2
1440,72.0,-12.0001,-0.3731991,0.009715904,0,0,0,0,0,11.99997,56.04844,0.3731991,0,82.20821,-12.0001,4270.291,22354.6
1445,72.25,-12.04197,-0.3757498,0.009782308,0,0,0,0,0,12.04184,56.24399,0.3757498,0,82.65412,-12.04197,4280.348,22429.2
1450,72.5,-12.08344,-0.3782796,0.00984817,0,0,0,0,0,12.0833,56.43766,0.3782796,0,83.09773,-12.08344,4290.093,22502.7
1455,72.75,-12.1253,-0.380797,0.009913706,0,0,0,0,0,12.12517,56.63321,0.380797,0,83.54763,-12.1253,4299.256,22574.2
1460,73.0,-12.16664,-0.3835237,0.009984694,0,0,0,0,0,12.1665,56.82627,0.3835237,0,83.99379,-12.16664,4310.765,22658.6
1465,73.25,-12.20864,-0.3862568,0.01005585,0,0,0,0,0,12.2085,57.02243,0.3862568,0,84.44919,-12.20864,4321.759,22741.6
1470,73.5,-12.25024,-0.3890875,0.01012954,0,0,0,0,0,12.2501,57.21674,0.3890875,0,84.90233,-12.25024,4333.749,22830.5
1475,73.75,-12.2917,-0.3916178,0.01019542,0,0,0,0,0,12.29157,57.41042,0.3916178,0,85.35605,-12.2917,4342.186,22901.4
1480,74.0,-12.3337,-0.3949336,0.01028174,0,0,0,0,0,12.33357,57.60659,0.3949336,0,85.81772,-12.3337,4358.781,23016.7
1485,74.25,-12.3753,-0.3975803,0.01035065,0,0,0,0,0,12.37517,57.80089,0.3975803,0,86.2771,-12.3753,4367.881,23093
1490,74.5,-12.41677,-0.4022028,0.01047099,0,0,0,0,0,12.41664,57.99456,0.4022028,0,86.73712,-12.41677,4398.383,23283.5
1495,74.75,-12.4585,-0.4056134,0.01055978,0,0,0,0,0,12.45837,58.18949,0.4056135,0,87.20225,-12.4585,4415.098,23402.3
1500,75.0,-12.50037,-0.4100211,0.01067453,0,0,0,0,0,12.50024,58.38504,0.4100211,0,87.67104,-12.50037,4442.201,23577.4
1505,75.25,-12.54184,-0.4134269,0.0107632,0,0,0,0,0,12.5417,58.57872,0.4134269,0,88.13753,-12.54184,4458.255,23694.6
1510,75.5,-12.5833,-0.4180089,0.01088249,0,0,0,0,0,12.58317,58.77239,0.4180089,0,88.60621,-12.5833,4486.589,23878.3
1515,75.75,-12.62544,-0.4217809,0.01098069,0,0,0,0,0,12.6253,58.96919,0.4217809,0,89.08469,-12.62544,4505.465,24013.3
1520,76.0,-12.66677,-0.4257619,0.01108433,0,0,0,0,0,12.66664,59.16224,0.4257619,0,89.55631,-12.66677,4526.591,24160.9
1525,76.25,-12.70837,-0.429324,0.01117706,0,0,0,0,0,12.70824,59.35654,0.429324,0,90.03323,-12.70837,4542.745,24283.3
1530,76.5,-12.75037,-0.432729,0.01126571,0,0,0,0,0,12.75024,59.55271,0.432729,0,90.51706,-12.75037,4556.674,24395.2
1535,76.75,-12.7917,-0.4359149,0.01134865,0,0,0,0,0,12.79157,59.74577,0.4359149,0,90.99551,-12.7917,4568.312,24495.4
1540,77.0,-12.83357,-0.4393544,0.0114382,0,0,0,0,0,12.83344,59.94131,0.4393544,0,91.48246,-12.83357,4581.992,24608.2
1545,77.25,-12.8753,-0.4429059,0.01153066,0,0,0,0,0,12.87517,60.13624,0.4429059,0,91.97025,-12.8753,4596.554,24726.7
1550,77.5,-12.91677,-0.4462844,0.01161861,0,0,0,0,0,12.91664,60.32992,0.4462844,0,92.45729,-12.91677,4609.113,24835.3
1555,77.75,-12.95863,-0.4494572,0.01170122,0,0,0,0,0,12.9585,60.52546,0.4494573,0,92.95143,-12.95863,4619.001,24931.1
1560,78.0,-13.0001,-0.4521796,0.01177209,0,0,0,0,0,12.99997,60.71914,0.4521796,0,93.44329,-13.0001,4624.177,25002.1
1565,78.25,-13.04197,-0.4555064,0.0118587,0,0,0,0,0,13.04183,60.91469,0.4555064,0,93.94234,-13.04197,4635.01,25105.2
1570,78.5,-13.08343,-0.4581037,0.01192632,0,0,0,0,0,13.0833,61.10837,0.4581037,0,94.43911,-13.08343,4638.339,25168.3
1575,78.75,-13.12517,-0.4609299,0.01199989,0,0,0,0,0,13.12504,61.30329,0.4609299,0,94.94157,-13.12517,4643.564,25243
1580,79.0,-13.16703,-0.4639771,0.01207922,0,0,0,0,0,13.1669,61.49884,0.4639771,0,95.44818,-13.16703,4650.642,25329.1
1585,79.25,-13.20823,-0.4666406,0.01214857,0,0,0,0,0,13.2081,61.69127,0.4666407,0,95.94925,-13.20823,4653.962,25395.1
1590,79.5,-13.25023,-0.469342,0.0122189,0,0,0,0,0,13.2501,61.88744,0.469342,0,96.46262,-13.25023,4656.935,25461.1
1595,79.75,-13.29197,-0.4729783,0.01231357,0,0,0,0,0,13.29183,62.08236,0.4729783,0,96.97538,-13.29197,4669.013,25577.8
1600,80.0,-13.3333,-0.4753822,0.01237615,0,0,0,0,0,13.33317,62.27542,0.4753821,0,97.48584,-13.3333,4668.849,25628.1
1605,80.25,-13.37503,-0.4786643,0.01246159,0,0,0,0,0,13.3749,62.47034,0.4786642,0,98.00386,-13.37503,4676.794,25724.5
1610,80.50001,-13.41703,-0.4824452,0.01256003,0,0,0,0,0,13.4169,62.66651,0.4824452,0,98.52795,-13.41703,4689.096,25846.6
1615,80.75001,-13.45877,-0.4863937,0.01266282,0,0,0,0,0,13.45863,62.86144,0.4863937,0,99.05143,-13.45877,4702.79,25977.3
1620,81.00001,-13.49997,-0.49062,0.01277285,0,0,0,0,0,13.49983,63.05387,0.49062,0,99.57093,-13.49997,4719.074,26123.1
1625,81.25001,-13.5421,-0.4952146,0.01289247,0,0,0,0,0,13.54197,63.25066,0.4952146,0,100.105,-13.5421,4737.896,26285.7
1630,81.50001,-13.58357,-0.4996844,0.01300883,0,0,0,0,0,13.58343,63.44434,0.4996844,0,100.6334,-13.58357,4755.465,26442
1635,81.75001,-13.62503,-0.5038192,0.01311648,0,0,0,0,0,13.6249,63.63802,0.5038192,0,101.1646,-13.62503,4769.411,26579.6
1640,82.00001,-13.66703,-0.508759,0.01324508,0,0,0,0,0,13.6669,63.83419,0.508759,0,101.7056,-13.66703,4790.192,26757.7
1645,82.25001,-13.7085,-0.5131524,0.01335946,0,0,0,0,0,13.70837,64.02787,0.5131524,0,102.2426,-13.7085,4805.682,26907.2
1650,82.50001,-13.7501,-0.5175691,0.01347444,0,0,0,0,0,13.74997,64.22217,0.5175691,0,102.7842,-13.7501,4820.864,27056.6
1655,82.75001,-13.79183,-0.5230505,0.01361715,0,0,0,0,0,13.7917,64.41709,0.5230505,0,103.3305,-13.79183,4845.378,27260.5
1660,83.00001,-13.83343,-0.5286934,0.01376406,0,0,0,0,0,13.8333,64.61139,0.5286934,0,103.878,-13.83343,4870.909,27471.7
1665,83.25001,-13.8753,-0.5349554,0.01392708,0,0,0,0,0,13.87516,64.80694,0.5349554,0,104.4321,-13.8753,4901.367,27713.2
1670,83.50001,-13.91677,-0.5413701,0.01409408,0,0,0,0,0,13.91663,65.00062,0.5413701,0,104.984,-13.91677,4932.842,27962
1675,83.75001,-13.95863,-0.5482019,0.01427194,0,0,0,0,0,13.9585,65.19617,0.5482019,0,105.5443,-13.95863,4967.183,28229.9
1680,84.00001,-14.00023,-0.5548723,0.0144456,0,0,0,0,0,14.0001,65.39046,0.5548723,0,106.1041,-14.00023,4999.555,28488.5
1685,84.25001,-14.0417,-0.5611241,0.01460836,0,0,0,0,0,14.04156,65.58414,0.5611241,0,106.6653,-14.0417,5027.593,28724.4
1690,84.50001,-14.0837,-0.5681985,0.01479254,0,0,0,0,0,14.08357,65.78032,0.5681985,0,107.2369,-14.0837,5061.959,28999.8
1695,84.75001,-14.12517,-0.5747807,0.0149639,0,0,0,0,0,14.12503,65.97399,0.5747807,0,107.8045,-14.12517,5091.617,29249.6
1700,85.00001,-14.16677,-0.5814858,0.01513846,0,0,0,0,0,14.16663,66.1683,0.5814858,0,108.3772,-14.16677,5121.598,29503.9
1705,85.25001,-14.20863,-0.5891192,0.01533719,0,0,0,0,0,14.2085,66.36384,0.5891192,0,108.9568,-14.20863,5158.842,29803.2
1710,85.50001,-14.2501,-0.5963149,0.01552452,0,0,0,0,0,14.24996,66.55752,0.5963148,0,109.5343,-14.2501,5191.785,30079.4
1715,85.75001,-14.2917,-0.603859,0.01572093,0,0,0,0,0,14.29156,66.75182,0.603859,0,110.117,-14.2917,5226.922,30371.3
1720,86.00001,-14.33356,-0.6118204,0.01592819,0,0,0,0,0,14.33343,66.94736,0.6118204,0,110.7069,-14.33356,5264.688,30681.8
1725,86.25001,-14.37543,-0.6190261,0.01611579,0,0,0,0,0,14.3753,67.14291,0.6190261,0,111.3003,-14.37543,5295.178,30952.8
1730,86.50001,-14.41663,-0.6263793,0.01630722,0,0,0,0,0,14.4165,67.33535,0.6263794,0,111.8877,-14.41663,5326.697,31230.9
1735,86.75001,-14.45863,-0.6340797,0.01650769,0,0,0,0,0,14.4585,67.53152,0.6340796,0,112.49,-14.45863,5359.798,31523
1740,87.00001,-14.5005,-0.6417642,0.01670775,0,0,0,0,0,14.50036,67.72707,0.6417642,0,113.0941,-14.5005,5392.082,31813
1745,87.25001,-14.5417,-0.6493779,0.01690597,0,0,0,0,0,14.54156,67.91949,0.6493779,0,113.6922,-14.5417,5423.521,32099.2
1750,87.50001,-14.5837,-0.6576646,0.01712171,0,0,0,0,0,14.58356,68.11567,0.6576646,0,114.3055,-14.5837,5459.142,32415.2
1755,87.75001,-14.62516,-0.6659396,0.01733714,0,0,0,0,0,14.62503,68.30935,0.6659396,0,114.9148,-14.62516,5494.252,32730
1760,88.00001,-14.66676,-0.6743645,0.01755647,0,0,0,0,0,14.66663,68.50365,0.6743645,0,115.5298,-14.66676,5529.649,33050
1765,88.25001,-14.70863,-0.6827347,0.01777438,0,0,0,0,0,14.7085,68.6992,0.6827347,0,116.1526,-14.70863,5563.525,33365
1770,88.50001,-14.7501,-0.6911739,0.01799409,0,0,0,0,0,14.74996,68.89287,0.6911739,0,116.7733,-14.7501,5597.445,33682.5
1775,88.75001,-14.79196,-0.7002539,0.01823048,0,0,0,0,0,14.79183,69.08842,0.700254,0,117.4039,-14.79196,5635.33,34028.4
1780,89.00001,-14.83316,-0.7088763,0.01845496,0,0,0,0,0,14.83303,69.28085,0.7088764,0,118.0284,-14.83316,5669.206,34351.7
1785,89.25001,-14.87516,-0.7182329,0.01869855,0,0,0,0,0,14.87503,69.47702,0.7182329,0,118.669,-14.87516,5707.353,34706.8
1790,89.50001,-14.9169,-0.7274766,0.0189392,0,0,0,0,0,14.91676,69.67194,0.7274766,0,119.3097,-14.9169,5743.891,35055.1
1795,89.75001,-14.95836,-0.7360767,0.01916309,0,0,0,0,0,14.95823,69.86562,0.7360767,0,119.9504,-14.95836,5774.679,35371.2
1800,90.00001,-15.00023,-0.7459457,0.01942002,0,0,0,0,0,15.0001,70.06117,0.7459456,0,120.6014,-15.00023,5814.127,35745.4
1801,90.036,-15.00623,-0.747212,0.01945299,0,0,0,0,0,15.0061,70.0892,0.747212,0,120.695,-15.00623,5818.546,35791.8