File: GFBaking/em/1_g13_5.csv
,Time sec,Extension mm,Load kgf,Compressive stress MPa,Cycle Count ,Total Cycle Count ,Repetitions Count ,Marked Data ,PIP Count ,Compressive extension mm,Compressive strain %,Compressive load kgf,Displacement (Strain 1) mm,True strain %,Corrected Position mm,True stress Pa,Elastic Modulus
0,0.0,0.0,-0.01755855,0.0004742884,0,0,0,0,0,0.0,0.0,0.01755855,0,0.0,0.0,474.2884,inf
5,0.25,-0.03573325,-0.02153111,0.0005815945,0,0,0,0,0,0.03573325,0.1487043,0.02153111,0,0.148815,-0.03573325,580.7297,433113
10,0.5,-0.0819998,-0.02432333,0.0006570175,0,0,0,0,0,0.0819998,0.3412431,0.02432333,0,0.3418266,-0.0819998,654.7754,213215
15,0.7500001,-0.124933,-0.02833625,0.0007654137,0,0,0,0,0,0.124933,0.5199102,0.02833625,0,0.5212665,-0.124933,761.4343,163032
20,1.0,-0.1667996,-0.03099767,0.0008373035,0,0,0,0,0,0.1667996,0.6941383,0.03099767,0,0.6965587,-0.1667996,831.4915,133580
25,1.25,-0.2081328,-0.03322388,0.0008974376,0,0,0,0,0,0.2081328,0.866147,0.03322388,0,0.8699199,-0.2081328,889.6644,114741
30,1.5,-0.2503994,-0.03555612,0.0009604355,0,0,0,0,0,0.2503994,1.04204,0.03555612,0,1.047507,-0.2503994,950.4274,102068
35,1.75,-0.2917326,-0.03811799,0.001029636,0,0,0,0,0,0.2917326,1.214049,0.03811799,0,1.221478,-0.2917326,1017.136,93918.8
40,2.0,-0.3333325,-0.04036342,0.001090289,0,0,0,0,0,0.3333325,1.387167,0.04036342,0,1.396878,-0.3333325,1075.165,87039.7
45,2.25,-0.3751991,-0.04268856,0.001153096,0,0,0,0,0,0.3751991,1.561395,0.04268856,0,1.573713,-0.3751991,1135.091,81781.9
50,2.5,-0.4166657,-0.04480459,0.001210254,0,0,0,0,0,0.4166656,1.733959,0.04480459,0,1.749168,-0.4166657,1189.268,77293.4
55,2.75,-0.4586655,-0.04720401,0.001275066,0,0,0,0,0,0.4586655,1.908742,0.04720401,0,1.927193,-0.4586655,1250.729,73975.9
60,3.0,-0.4998654,-0.04924839,0.001330289,0,0,0,0,0,0.4998654,2.080196,0.04924839,0,2.102136,-0.4998654,1302.616,70818.4
65,3.25,-0.541732,-0.05143288,0.001389296,0,0,0,0,0,0.541732,2.254424,0.05143288,0,2.280224,-0.541732,1357.975,68243.9
70,3.5,-0.5835986,-0.05346753,0.001444255,0,0,0,0,0,0.5835986,2.428652,0.05346753,0,2.45863,-0.5835986,1409.18,65854.2
75,3.75,-0.6249318,-0.05607047,0.001514565,0,0,0,0,0,0.6249318,2.600661,0.05607047,0,2.635076,-0.6249318,1475.177,64492.4
80,4.0,-0.6667984,-0.05772914,0.001559369,0,0,0,0,0,0.6667984,2.774889,0.05772914,0,2.814116,-0.6667984,1516.098,62231.2
85,4.25,-0.7086649,-0.06037046,0.001630716,0,0,0,0,0,0.708665,2.949117,0.06037046,0,2.993478,-0.7086649,1582.624,61233.7
90,4.5,-0.7499981,-0.06225887,0.001681725,0,0,0,0,0,0.7499982,3.121125,0.06225887,0,3.17087,-0.7499981,1629.237,59668.9
95,4.75,-0.7917314,-0.06443482,0.001740502,0,0,0,0,0,0.7917314,3.294799,0.06443483,0,3.3503,-0.7917314,1683.156,58499.2
100,5.0,-0.833598,-0.06627223,0.001790134,0,0,0,0,0,0.833598,3.469027,0.06627223,0,3.530627,-0.833598,1728.033,57145.5
105,5.25,-0.8751979,-0.06844205,0.001848745,0,0,0,0,0,0.8751979,3.642146,0.06844205,0,3.710127,-0.8751979,1781.411,56211.4
110,5.5,-0.9167978,-0.07088644,0.001914772,0,0,0,0,0,0.9167978,3.815264,0.07088643,0,3.889951,-0.9167978,1841.718,55577.2
115,5.75,-0.958531,-0.07243532,0.00195661,0,0,0,0,0,0.958531,3.988937,0.07243532,0,4.070676,-0.958531,1878.562,54319
120,6.0,-0.9999976,-0.07483899,0.002021538,0,0,0,0,0,0.9999976,4.161501,0.074839,0,4.250571,-0.9999976,1937.411,53794.3
125,6.25,-1.041864,-0.07663967,0.002070177,0,0,0,0,0,1.041864,4.335729,0.07663967,0,4.43253,-1.041864,1980.42,52874.9
130,6.5,-1.083597,-0.07897852,0.002133354,0,0,0,0,0,1.083597,4.509403,0.07897852,0,4.61424,-1.083597,2037.152,52390
135,6.75,-1.124797,-0.08080204,0.00218261,0,0,0,0,0,1.124797,4.680856,0.08080204,0,4.793952,-1.124797,2080.446,51636.3
140,7.0,-1.166797,-0.08289329,0.002239099,0,0,0,0,0,1.166797,4.855639,0.08289329,0,4.977486,-1.166797,2130.376,51065.9
145,7.25,-1.20853,-0.0845475,0.002283782,0,0,0,0,0,1.20853,5.029313,0.0845475,0,5.160189,-1.20853,2168.923,50286.4
150,7.5,-1.249997,-0.08682291,0.002345245,0,0,0,0,0,1.249997,5.201876,0.08682291,0,5.342057,-1.249997,2223.248,49926.7
155,7.75,-1.291864,-0.08875233,0.002397362,0,0,0,0,0,1.291864,5.376104,0.08875233,0,5.526014,-1.291864,2268.477,49382.2
160,8.0,-1.33333,-0.09034551,0.002440397,0,0,0,0,0,1.33333,5.548668,0.09034552,0,5.708549,-1.33333,2304.987,48705.3
165,8.25,-1.37533,-0.0924348,0.002496832,0,0,0,0,0,1.37533,5.723451,0.0924348,0,5.893771,-1.37533,2353.927,48309.9
170,8.5,-1.416797,-0.09379172,0.002533485,0,0,0,0,0,1.416797,5.896015,0.09379172,0,6.076979,-1.416797,2384.111,47584.4
175,8.75,-1.458396,-0.09562243,0.002582936,0,0,0,0,0,1.458396,6.069133,0.09562244,0,6.261113,-1.458396,2426.174,47129.4
180,9.0,-1.500263,-0.09752278,0.002634268,0,0,0,0,0,1.500263,6.243361,0.09752278,0,6.446771,-1.500263,2469.801,46724.6
185,9.25,-1.541596,-0.09923836,0.002680609,0,0,0,0,0,1.541596,6.41537,0.09923836,0,6.630402,-1.541596,2508.638,46271.8
190,9.5,-1.58333,-0.1011454,0.002732121,0,0,0,0,0,1.58333,6.589043,0.1011454,0,6.816154,-1.58333,2552.1,45917.9
195,9.75,-1.625196,-0.1029117,0.002779833,0,0,0,0,0,1.625196,6.763271,0.1029117,0,7.002846,-1.625196,2591.825,45516.2
200,10.0,-1.666663,-0.1051919,0.002841424,0,0,0,0,0,1.666663,6.935835,0.1051919,0,7.188098,-1.666663,2644.347,45367.2
205,10.25,-1.708529,-0.1065037,0.00287686,0,0,0,0,0,1.708529,7.110063,0.1065037,0,7.375487,-1.708529,2672.314,44807.4
210,10.5,-1.750262,-0.1083197,0.002925914,0,0,0,0,0,1.750262,7.283736,0.1083197,0,7.562628,-1.750262,2712.798,44484.8
215,10.75,-1.791862,-0.1100342,0.002972224,0,0,0,0,0,1.791862,7.456855,0.1100342,0,7.749521,-1.791862,2750.589,44139.8
220,11.0,-1.833196,-0.1114266,0.003009835,0,0,0,0,0,1.833196,7.628863,0.1114266,0,7.935563,-1.833196,2780.219,43690.5
225,11.25,-1.875195,-0.1132156,0.00305816,0,0,0,0,0,1.875195,7.803647,0.1132156,0,8.12496,-1.875195,2819.512,43397.7
230,11.5,-1.916795,-0.1139016,0.003076691,0,0,0,0,0,1.916795,7.976765,0.1139016,0,8.312908,-1.916795,2831.271,42713.1
235,11.75,-1.958262,-0.1164631,0.003145881,0,0,0,0,0,1.958262,8.149328,0.1164631,0,8.500607,-1.958262,2889.513,42748.9
240,12.0,-2.000128,-0.1164437,0.003145357,0,0,0,0,0,2.000128,8.323556,0.1164437,0,8.690472,-2.000128,2883.552,41847.1
245,12.25,-2.041728,-0.119535,0.003228859,0,0,0,0,0,2.041728,8.496675,0.119535,0,8.879488,-2.041728,2954.513,42082.8
250,12.5,-2.083328,-0.1200033,0.003241509,0,0,0,0,0,2.083328,8.669794,0.1200033,0,9.068861,-2.083328,2960.476,41404.1
255,12.75,-2.125195,-0.1222049,0.003300978,0,0,0,0,0,2.125195,8.844022,0.1222049,0,9.25981,-2.125195,3009.039,41333
260,13.0,-2.166795,-0.1229483,0.003321057,0,0,0,0,0,2.166795,9.01714,0.1229483,0,9.449906,-2.166795,3021.593,40786.1
265,13.25,-2.208528,-0.1241116,0.003352481,0,0,0,0,0,2.208528,9.190813,0.1241116,0,9.640973,-2.208528,3044.361,40394
270,13.5,-2.249995,-0.1258853,0.003400392,0,0,0,0,0,2.249995,9.363378,0.1258853,0,9.831183,-2.249995,3082.001,40216.2
275,13.75,-2.291728,-0.12642,0.003414835,0,0,0,0,0,2.291728,9.53705,0.12642,0,10.02298,-2.291728,3089.16,39651.5
280,14.0,-2.333594,-0.1279934,0.003457334,0,0,0,0,0,2.333594,9.711278,0.1279934,0,10.21576,-2.333594,3121.582,39424.8
285,14.25,-2.374928,-0.1282719,0.003464859,0,0,0,0,0,2.374928,9.883287,0.1282719,0,10.40645,-2.374928,3122.417,38822.9
290,14.5,-2.416927,-0.1300872,0.003513892,0,0,0,0,0,2.416927,10.05807,0.1300872,0,10.60059,-2.416927,3160.462,38688.2
295,14.75,-2.458394,-0.1308818,0.003535356,0,0,0,0,0,2.458394,10.23063,0.1308818,0,10.79264,-2.458394,3173.666,38267.9
300,15.0,-2.499994,-0.1319474,0.003564139,0,0,0,0,0,2.499994,10.40375,0.1319474,0,10.98567,-2.499994,3193.334,37937.5
305,15.25,-2.541861,-0.1332793,0.003600117,0,0,0,0,0,2.541861,10.57798,0.1332793,0,11.18032,-2.541861,3219.297,37689.3
310,15.5,-2.583327,-0.1340211,0.003620154,0,0,0,0,0,2.583327,10.75054,0.1340211,0,11.37349,-2.583327,3230.968,37290.7
315,15.75,-2.624927,-0.1346144,0.00363618,0,0,0,0,0,2.624927,10.92366,0.1346144,0,11.56765,-2.624927,3238.976,36862.2
320,16.0,-2.666794,-0.1364549,0.003685895,0,0,0,0,0,2.666794,11.09789,0.1364549,0,11.76343,-2.666794,3276.839,36779.6
325,16.25,-2.708527,-0.1368274,0.003695958,0,0,0,0,0,2.708527,11.27156,0.1368274,0,11.95898,-2.708527,3279.366,36311.8
330,16.5,-2.749993,-0.1384423,0.003739579,0,0,0,0,0,2.749993,11.44413,0.1384423,0,12.15365,-2.749993,3311.617,36186.3
335,16.75,-2.791726,-0.1386554,0.003745334,0,0,0,0,0,2.791727,11.6178,0.1386554,0,12.34996,-2.791726,3310.209,35700.2
340,17.0,-2.833593,-0.1400203,0.003782205,0,0,0,0,0,2.833593,11.79203,0.1400203,0,12.54729,-2.833593,3336.206,35519
345,17.25,-2.87506,-0.1402109,0.003787351,0,0,0,0,0,2.87506,11.96459,0.1402109,0,12.74311,-2.87506,3334.21,35054.4
350,17.5,-2.916926,-0.141338,0.003817798,0,0,0,0,0,2.916926,12.13882,0.141338,0,12.94121,-2.916926,3354.362,34829
355,17.75,-2.958526,-0.1431935,0.003867918,0,0,0,0,0,2.958526,12.31194,0.1431935,0,13.13844,-2.958526,3391.703,34790.1
360,18.0,-2.999993,-0.1438748,0.003886319,0,0,0,0,0,2.999993,12.4845,0.1438748,0,13.33543,-2.999993,3401.132,34472.4
365,18.25,-3.041726,-0.1451585,0.003920995,0,0,0,0,0,3.041726,12.65818,0.1451585,0,13.53407,-3.041726,3424.668,34302.8
370,18.5,-3.083459,-0.1461385,0.003947468,0,0,0,0,0,3.083459,12.83185,0.1461385,0,13.73312,-3.083459,3440.935,34067
375,18.75,-3.125192,-0.1476133,0.003987304,0,0,0,0,0,3.125192,13.00552,0.1476133,0,13.93255,-3.125192,3468.735,33951.3
380,19.0,-3.166659,-0.1487195,0.004017185,0,0,0,0,0,3.166659,13.17809,0.1487195,0,14.13111,-3.166659,3487.797,33757.8
385,19.25,-3.208525,-0.1497921,0.004046159,0,0,0,0,0,3.208525,13.35231,0.1497921,0,14.33199,-3.208525,3505.903,33557.6
390,19.5,-3.250125,-0.1508258,0.00407408,0,0,0,0,0,3.250125,13.52543,0.1508258,0,14.53198,-3.250125,3523.043,33356.7
395,19.75,-3.291459,-0.151821,0.004100963,0,0,0,0,0,3.291459,13.69744,0.151821,0,14.73109,-3.291459,3539.236,33155.1
400,20.0,-3.333458,-0.1532589,0.004139803,0,0,0,0,0,3.333458,13.87222,0.1532589,0,14.93382,-3.333458,3565.52,33047.5
405,20.25,-3.375192,-0.1547405,0.004179823,0,0,0,0,0,3.375192,14.0459,0.1547405,0,15.13567,-3.375192,3592.729,32954.4
410,20.5,-3.416658,-0.1547578,0.004180291,0,0,0,0,0,3.416658,14.21846,0.1547578,0,15.33664,-3.416658,3585.918,32558
415,20.75,-3.458392,-0.1557571,0.004207282,0,0,0,0,0,3.458392,14.39213,0.1557571,0,15.5393,-3.458392,3601.765,32372.9
420,21.0,-3.500258,-0.1571518,0.004244958,0,0,0,0,0,3.500258,14.56636,0.1571518,0,15.74303,-3.500258,3626.622,32272.1
425,21.25,-3.541858,-0.1577271,0.004260496,0,0,0,0,0,3.541858,14.73948,0.1577271,0,15.94587,-3.541858,3632.521,32009.8
430,21.5,-3.583325,-0.1586473,0.004285352,0,0,0,0,0,3.583325,14.91204,0.1586473,0,16.14847,-3.583325,3646.318,31823.9
435,21.75,-3.625191,-0.1589582,0.00429375,0,0,0,0,0,3.625191,15.08627,0.1589582,0,16.35344,-3.625191,3645.983,31518.1
440,22.0,-3.666658,-0.160043,0.004323054,0,0,0,0,0,3.666658,15.25884,0.160043,0,16.55687,-3.666658,3663.406,31374.3
445,22.25,-3.708391,-0.1601105,0.004324876,0,0,0,0,0,3.708391,15.43251,0.1601105,0,16.76203,-3.708391,3657.439,31034.3
450,22.5,-3.750257,-0.1614963,0.004362308,0,0,0,0,0,3.750257,15.60674,0.1614963,0,16.96826,-3.750257,3681.494,30953.4
455,22.75,-3.791591,-0.1620122,0.004376246,0,0,0,0,0,3.791591,15.77875,0.1620122,0,17.17229,-3.791591,3685.729,30713.8
460,23.0,-3.833457,-0.1628766,0.004399593,0,0,0,0,0,3.833457,15.95298,0.1628766,0,17.37937,-3.833457,3697.727,30540.4
465,23.25,-3.875191,-0.1635269,0.004417159,0,0,0,0,0,3.87519,16.12665,0.1635269,0,17.58622,-3.875191,3704.819,30332.2
470,23.5,-3.916657,-0.1647817,0.004451055,0,0,0,0,0,3.916657,16.29921,0.1647817,0,17.79218,-3.916657,3725.568,30241.3
475,23.75,-3.958524,-0.1645158,0.004443871,0,0,0,0,0,3.958524,16.47344,0.1645158,0,18.00055,-3.958524,3711.813,29873.2
480,24.0,-3.99999,-0.1654266,0.004468474,0,0,0,0,0,3.99999,16.646,0.1654266,0,18.20736,-3.99999,3724.651,29727.2
485,24.25,-4.04199,-0.1657457,0.004477094,0,0,0,0,0,4.04199,16.82079,0.1657457,0,18.41727,-4.04199,3724.012,29475
490,24.5,-4.083457,-0.1664518,0.004496166,0,0,0,0,0,4.083457,16.99335,0.1664518,0,18.62495,-4.083457,3732.117,29300
495,24.75,-4.125057,-0.1668697,0.004507454,0,0,0,0,0,4.125057,17.16647,0.1668697,0,18.83372,-4.125057,3733.683,29077.4
500,25.0,-4.167057,-0.167612,0.004527504,0,0,0,0,0,4.167057,17.34125,0.167612,0,19.04495,-4.167057,3742.378,28912.3
505,25.25,-4.208256,-0.1681428,0.004541842,0,0,0,0,0,4.208257,17.5127,0.1681428,0,19.25259,-4.208256,3746.443,28719.9
510,25.5,-4.24999,-0.1688316,0.004560448,0,0,0,0,0,4.24999,17.68638,0.1688316,0,19.46336,-4.24999,3753.87,28554.4
515,25.75,-4.291723,-0.1695325,0.004579381,0,0,0,0,0,4.291723,17.86005,0.1695325,0,19.67457,-4.291723,3761.501,28394.1
520,26.0,-4.333456,-0.1702332,0.004598309,0,0,0,0,0,4.333456,18.03373,0.1702332,0,19.88623,-4.333456,3769.063,28236.9
525,26.25,-4.375056,-0.1708692,0.004615489,0,0,0,0,0,4.375056,18.20684,0.1708692,0,20.09766,-4.375056,3775.155,28072.9
530,26.5,-4.416923,-0.171667,0.004637038,0,0,0,0,0,4.416923,18.38107,0.171667,0,20.3109,-4.416923,3784.701,27936.6
535,26.75,-4.458522,-0.172671,0.004664159,0,0,0,0,0,4.458522,18.55419,0.172671,0,20.52323,-4.458522,3798.762,27837.9
540,27.0,-4.499856,-0.1730297,0.004673848,0,0,0,0,0,4.499856,18.7262,0.1730297,0,20.73465,-4.499856,3798.614,27639.4
545,27.25,-4.541989,-0.1742753,0.004707494,0,0,0,0,0,4.541989,18.90154,0.1742753,0,20.95062,-4.541989,3817.705,27580.2
550,27.5,-4.583456,-0.1747746,0.004720982,0,0,0,0,0,4.583456,19.0741,0.1747746,0,21.16363,-4.583456,3820.497,27409
555,27.75,-4.624922,-0.1755677,0.004742403,0,0,0,0,0,4.624922,19.24667,0.1755677,0,21.37709,-4.624922,3829.648,27286.5
560,28.0,-4.666922,-0.1762991,0.004762161,0,0,0,0,0,4.666922,19.42145,0.1762991,0,21.59377,-4.666922,3837.28,27153.6
565,28.25,-4.708522,-0.1773074,0.004789395,0,0,0,0,0,4.708522,19.59457,0.1773074,0,21.80884,-4.708522,3850.934,27067.6
570,28.5,-4.750122,-0.1781408,0.004811909,0,0,0,0,0,4.750122,19.76768,0.1781408,0,22.02438,-4.750122,3860.706,26956.7
575,28.75,-4.791855,-0.1786949,0.004826876,0,0,0,0,0,4.791855,19.94136,0.1786949,0,22.24108,-4.791855,3864.331,26805
580,29.0,-4.833322,-0.1796056,0.004851474,0,0,0,0,0,4.833322,20.11392,0.1796056,0,22.45686,-4.833322,3875.652,26710.5
585,29.25,-4.875188,-0.1802841,0.004869803,0,0,0,0,0,4.875188,20.28815,0.1802841,0,22.67519,-4.875188,3881.81,26581.1
590,29.5,-4.916788,-0.1811195,0.004892369,0,0,0,0,0,4.916788,20.46127,0.1811195,0,22.89261,-4.916788,3891.328,26478.4
595,29.75,-4.958521,-0.1817171,0.004908509,0,0,0,0,0,4.958521,20.63494,0.1817171,0,23.1112,-4.958521,3895.641,26342.1
600,30.0,-5.000255,-0.1820945,0.004918705,0,0,0,0,0,5.000255,20.80861,0.1820945,0,23.33027,-5.000255,3895.191,26176.5
605,30.25,-5.041721,-0.1827143,0.004935447,0,0,0,0,0,5.041721,20.98118,0.1827143,0,23.54841,-5.041721,3899.932,26049.6
610,30.5,-5.083587,-0.1831878,0.004948237,0,0,0,0,0,5.083588,21.15541,0.1831878,0,23.76914,-5.083587,3901.418,25902
615,30.75,-5.125187,-0.1838616,0.004966438,0,0,0,0,0,5.125187,21.32852,0.1838616,0,23.98895,-5.125187,3907.17,25786.3
620,31.0,-5.166788,-0.1847116,0.004989396,0,0,0,0,0,5.166788,21.50164,0.1847116,0,24.20925,-5.166788,3916.594,25696.9
625,31.25,-5.208654,-0.1850287,0.004997963,0,0,0,0,0,5.208654,21.67587,0.1850287,0,24.43145,-5.208654,3914.611,25534.1
630,31.5,-5.250121,-0.1859027,0.005021571,0,0,0,0,0,5.250121,21.84843,0.1859027,0,24.65201,-5.250121,3924.436,25452.1
635,31.75,-5.29172,-0.1860443,0.005025395,0,0,0,0,0,5.29172,22.02155,0.1860443,0,24.87377,-5.29172,3918.725,25271.3
640,32.0,-5.333587,-0.1867387,0.005044153,0,0,0,0,0,5.333587,22.19578,0.1867387,0,25.09745,-5.333587,3924.564,25166.5
645,32.25,-5.37532,-0.1873043,0.005059432,0,0,0,0,0,5.37532,22.36945,0.1873043,0,25.32092,-5.37532,3927.664,25046.7
650,32.5,-5.416654,-0.1877202,0.005070664,0,0,0,0,0,5.416654,22.54146,0.1877202,0,25.54274,-5.416654,3927.663,24910.8
655,32.75,-5.45852,-0.1881118,0.005081242,0,0,0,0,0,5.45852,22.71569,0.1881118,0,25.76793,-5.45852,3927.003,24771.3
660,33.0,-5.500386,-0.1887037,0.00509723,0,0,0,0,0,5.500386,22.88992,0.1887037,0,25.99362,-5.500386,3930.479,24660.1
665,33.25,-5.541586,-0.1889194,0.005103058,0,0,0,0,0,5.541586,23.06137,0.1889194,0,26.21621,-5.541586,3926.223,24504.7
670,33.5,-5.58372,-0.1894463,0.005117289,0,0,0,0,0,5.58372,23.23671,0.1894463,0,26.44437,-5.58372,3928.2,24387.6
675,33.75,-5.625053,-0.1895085,0.005118971,0,0,0,0,0,5.625053,23.40872,0.1895085,0,26.66869,-5.625053,3920.685,24216.4
680,34.0,-5.66692,-0.1898084,0.005127072,0,0,0,0,0,5.66692,23.58295,0.1898084,0,26.89643,-5.66692,3917.957,24075.5
685,34.25,-5.708653,-0.1899667,0.005131348,0,0,0,0,0,5.708652,23.75662,0.1899667,0,27.12396,-5.708653,3912.313,23919.5
690,34.5,-5.750119,-0.190244,0.005138837,0,0,0,0,0,5.750119,23.92918,0.190244,0,27.35055,-5.750119,3909.155,23781.6
695,34.75,-5.791986,-0.1903203,0.005140897,0,0,0,0,0,5.791986,24.10341,0.1903203,0,27.57985,-5.791986,3901.765,23619.2
700,35.0,-5.833319,-0.1903948,0.005142912,0,0,0,0,0,5.833319,24.27542,0.1903948,0,27.80674,-5.833319,3894.448,23461
705,35.25,-5.875186,-0.1908147,0.005154252,0,0,0,0,0,5.875185,24.44965,0.1908147,0,28.03709,-5.875186,3894.056,23345.2
710,35.5,-5.916919,-0.1909629,0.005158255,0,0,0,0,0,5.916919,24.62332,0.1909629,0,28.26723,-5.916919,3888.121,23198.5
715,35.75,-5.958252,-0.1912836,0.005166917,0,0,0,0,0,5.958252,24.79533,0.1912836,0,28.49569,-5.958252,3885.763,23076.3
720,36.0,-6.000252,-0.1915205,0.005173318,0,0,0,0,0,6.000252,24.97011,0.1915205,0,28.72837,-6.000252,3881.534,22943.2
725,36.25,-6.041985,-0.1918283,0.005181632,0,0,0,0,0,6.041986,25.14379,0.1918283,0,28.96011,-6.041985,3878.773,22821.3
730,36.5,-6.083318,-0.1919361,0.005184544,0,0,0,0,0,6.083319,25.3158,0.1919361,0,29.19016,-6.083318,3872.036,22679
735,36.75,-6.125185,-0.1924108,0.005197367,0,0,0,0,0,6.125185,25.49003,0.1924108,0,29.42372,-6.125185,3872.556,22579.7
740,37.0,-6.166918,-0.1924808,0.005199258,0,0,0,0,0,6.166918,25.6637,0.1924808,0,29.65708,-6.166918,3864.936,22435
745,37.25,-6.208518,-0.1929302,0.005211396,0,0,0,0,0,6.208518,25.83682,0.1929302,0,29.89023,-6.208518,3864.937,22336.7
750,37.5,-6.250118,-0.1931553,0.005217477,0,0,0,0,0,6.250118,26.00994,0.1931553,0,30.12394,-6.250118,3860.415,22213.9
755,37.75,-6.291851,-0.1935707,0.005228699,0,0,0,0,0,6.291852,26.18361,0.1935707,0,30.35894,-6.291851,3859.637,22114.1
760,38.0,-6.333451,-0.1939437,0.005238773,0,0,0,0,0,6.333451,26.35673,0.1939437,0,30.59374,-6.333451,3858.004,22011.1
765,38.25,-6.375051,-0.1943669,0.005250205,0,0,0,0,0,6.375051,26.52985,0.1943669,0,30.82909,-6.375051,3857.334,21915.2
770,38.5,-6.416918,-0.1949283,0.00526537,0,0,0,0,0,6.416918,26.70407,0.1949283,0,31.06652,-6.416918,3859.301,21835.1
775,38.75,-6.458251,-0.1948197,0.005262434,0,0,0,0,0,6.458251,26.87608,0.1948197,0,31.30147,-6.458251,3848.098,21683.3
780,39.0,-6.500117,-0.1957836,0.005288473,0,0,0,0,0,6.500117,27.05031,0.1957836,0,31.54002,-6.500117,3857.925,21650.2
785,39.25,-6.541851,-0.1958187,0.00528942,0,0,0,0,0,6.541851,27.22398,0.1958187,0,31.77837,-6.541851,3849.429,21516
790,39.5,-6.583317,-0.197128,0.005324786,0,0,0,0,0,6.583317,27.39655,0.197128,0,32.01577,-6.583317,3865.978,21523.4
795,39.75,-6.625184,-0.1965821,0.005310042,0,0,0,0,0,6.625184,27.57078,0.1965821,0,32.25603,-6.625184,3846.022,21328.2
800,40.0,-6.666784,-0.1981574,0.005352593,0,0,0,0,0,6.666784,27.74389,0.1981574,0,32.49533,-6.666784,3867.576,21364.9
805,40.25,-6.708784,-0.1976577,0.005339094,0,0,0,0,0,6.708784,27.91868,0.1976577,0,32.73752,-6.708784,3848.489,21177.6
810,40.5,-6.750117,-0.1983052,0.005356586,0,0,0,0,0,6.750117,28.09069,0.1983052,0,32.97644,-6.750117,3851.884,21116.9
815,40.75,-6.791717,-0.1975883,0.00533722,0,0,0,0,0,6.791717,28.26381,0.1975883,0,33.21748,-6.791717,3828.719,20911.7
820,41.0,-6.833717,-0.1979544,0.005347109,0,0,0,0,0,6.833717,28.43859,0.1979544,0,33.46142,-6.833717,3826.467,20821.7
825,41.25,-6.874917,-0.1977985,0.005342897,0,0,0,0,0,6.874917,28.61004,0.1977985,0,33.7013,-6.874917,3814.292,20680.6
830,41.5,-6.916783,-0.1972399,0.005327808,0,0,0,0,0,6.916783,28.78427,0.1972399,0,33.94565,-6.916783,3794.237,20497.4
835,41.75,-6.958516,-0.1978132,0.005343296,0,0,0,0,0,6.958516,28.95794,0.1978132,0,34.18981,-6.958516,3795.987,20433.6
840,42.0,-6.999983,-0.1970855,0.00532364,0,0,0,0,0,6.999983,29.13051,0.1970855,0,34.43301,-6.999983,3772.837,20237.9
845,42.25,-7.04185,-0.1977984,0.005342896,0,0,0,0,0,7.04185,29.30474,0.1977984,0,34.67916,-7.04185,3777.174,20190.3
850,42.5,-7.083583,-0.1967148,0.005313626,0,0,0,0,0,7.083583,29.47841,0.1967148,0,34.92512,-7.083583,3747.254,19961.4
855,42.75,-7.125183,-0.1967089,0.005313466,0,0,0,0,0,7.125183,29.65153,0.1967089,0,35.17091,-7.125183,3737.942,19844.3
860,43.0,-7.166649,-0.1965315,0.005308675,0,0,0,0,0,7.166649,29.82409,0.1965315,0,35.41651,-7.166649,3725.411,19711.7
865,43.25,-7.208649,-0.1961225,0.005297626,0,0,0,0,0,7.208649,29.99887,0.1961225,0,35.66588,-7.208649,3708.398,19556
870,43.5,-7.250116,-0.1951622,0.005271686,0,0,0,0,0,7.250116,30.17144,0.1951622,0,35.9127,-7.250116,3681.143,19349
875,43.75,-7.291582,-0.1943426,0.005249547,0,0,0,0,0,7.291583,30.344,0.1943426,0,36.16014,-7.291582,3656.625,19158.1
880,44.0,-7.333715,-0.1936492,0.005230817,0,0,0,0,0,7.333715,30.51934,0.1936492,0,36.41217,-7.333715,3634.407,18980.1
885,44.25,-7.375182,-0.1930613,0.005214936,0,0,0,0,0,7.375182,30.6919,0.1930613,0,36.66084,-7.375182,3614.373,18816.1
890,44.5,-7.416782,-0.1922676,0.005193498,0,0,0,0,0,7.416782,30.86502,0.1922676,0,36.91094,-7.416782,3590.524,18633.6
895,44.75,-7.458382,-0.192274,0.00519367,0,0,0,0,0,7.458382,31.03814,0.192274,0,37.16166,-7.458382,3581.652,18530.3
900,45.0,-7.499982,-0.1915372,0.005173768,0,0,0,0,0,7.499982,31.21126,0.1915372,0,37.41301,-7.499982,3558.97,18356.9
905,45.25,-7.541848,-0.1918616,0.005182533,0,0,0,0,0,7.541848,31.38548,0.1918616,0,37.66661,-7.541848,3555.97,18286
910,45.5,-7.583315,-0.1914172,0.005170527,0,0,0,0,0,7.583315,31.55805,0.1914172,0,37.91842,-7.583315,3538.81,18143.8
915,45.75,-7.625181,-0.1919626,0.005185259,0,0,0,0,0,7.625181,31.73228,0.1919626,0,38.17331,-7.625181,3539.858,18095.6
920,46.0,-7.666915,-0.1922531,0.005193106,0,0,0,0,0,7.666915,31.90595,0.1922531,0,38.42803,-7.666915,3536.196,18024.4
925,46.25,-7.708381,-0.1926381,0.005203507,0,0,0,0,0,7.708381,32.07851,0.1926381,0,38.68177,-7.708381,3534.299,17963.3
930,46.5,-7.750381,-0.1932234,0.005219316,0,0,0,0,0,7.750381,32.2533,0.1932234,0,38.93944,-7.750381,3535.914,17920.2
935,46.75,-7.791847,-0.1936129,0.005229838,0,0,0,0,0,7.791847,32.42586,0.1936129,0,39.19448,-7.791847,3534.018,17860.8
940,47.0,-7.833314,-0.1939858,0.00523991,0,0,0,0,0,7.833314,32.59842,0.1939858,0,39.45018,-7.833314,3531.782,17800.5
945,47.25,-7.875181,-0.1945415,0.005254922,0,0,0,0,0,7.875181,32.77265,0.1945415,0,39.70901,-7.875181,3532.744,17756.6
950,47.5,-7.916648,-0.1954314,0.005278958,0,0,0,0,0,7.916648,32.94522,0.1954314,0,39.96603,-7.916648,3539.794,17744.4
955,47.75,-7.958247,-0.1959957,0.005294202,0,0,0,0,0,7.958247,33.11834,0.1959957,0,40.22453,-7.958247,3540.85,17702.6
960,48.0,-8.000114,-0.1962969,0.005302337,0,0,0,0,0,8.000114,33.29256,0.1962969,0,40.48537,-8.000114,3537.053,17637
965,48.25,-8.041981,-0.1977341,0.005341159,0,0,0,0,0,8.041981,33.46679,0.1977341,0,40.7469,-8.041981,3553.644,17673.6
970,48.5,-8.083314,-0.1980552,0.005349832,0,0,0,0,0,8.083314,33.6388,0.1980552,0,41.00576,-8.083314,3550.213,17611.8
975,48.75,-8.12518,-0.1989567,0.005374183,0,0,0,0,0,8.12518,33.81303,0.1989567,0,41.26865,-8.12518,3557.009,17600.8
980,49.0,-8.167047,-0.1996707,0.00539347,0,0,0,0,0,8.167048,33.98726,0.1996707,0,41.53224,-8.167047,3560.377,17573.4
985,49.25,-8.208247,-0.2012909,0.005437233,0,0,0,0,0,8.208247,34.15871,0.2012909,0,41.7923,-8.208247,3579.944,17627.1
990,49.5,-8.250247,-0.2012333,0.00543568,0,0,0,0,0,8.250247,34.33349,0.2012333,0,42.05812,-8.250247,3569.421,17532.4
995,49.75,-8.291847,-0.2026111,0.005472896,0,0,0,0,0,8.291847,34.50661,0.2026111,0,42.3221,-8.291847,3584.385,17563.8
1000,50.0,-8.333313,-0.2025926,0.005472394,0,0,0,0,0,8.333313,34.67918,0.2025926,0,42.58593,-8.333313,3574.613,17474.8
1005,50.25,-8.37518,-0.2036468,0.00550087,0,0,0,0,0,8.37518,34.8534,0.2036468,0,42.85301,-8.37518,3583.63,17478
1010,50.5,-8.416779,-0.2040299,0.00551122,0,0,0,0,0,8.41678,35.02652,0.2040299,0,43.1191,-8.416779,3580.831,17424.3
1015,50.75,-8.458513,-0.2047476,0.005530606,0,0,0,0,0,8.458513,35.2002,0.2047476,0,43.38676,-8.458513,3583.822,17399.3
1020,51.0,-8.499979,-0.2051462,0.005541374,0,0,0,0,0,8.499979,35.37276,0.2051462,0,43.65341,-8.499979,3581.237,17348.1
1025,51.25,-8.541846,-0.2058561,0.005560549,0,0,0,0,0,8.541845,35.54699,0.2058561,0,43.92337,-8.541846,3583.942,17322.9
1030,51.5,-8.583579,-0.2061998,0.005569831,0,0,0,0,0,8.583579,35.72066,0.2061998,0,44.19319,-8.583579,3580.251,17267.4
1035,51.75,-8.624912,-0.2067864,0.005585678,0,0,0,0,0,8.624912,35.89267,0.2067864,0,44.46114,-8.624912,3580.829,17233.5
1040,52.0,-8.666912,-0.2073422,0.005600689,0,0,0,0,0,8.666912,36.06745,0.2073422,0,44.73416,-8.666912,3580.664,17196.1
1045,52.25,-8.708646,-0.2075722,0.005606902,0,0,0,0,0,8.708646,36.24112,0.2075721,0,45.00618,-8.708646,3574.898,17132.7
1050,52.5,-8.750112,-0.2086241,0.005635316,0,0,0,0,0,8.750112,36.41368,0.2086241,0,45.27719,-8.750112,3583.29,17137.9
1055,52.75,-8.791845,-0.2091841,0.005650444,0,0,0,0,0,8.791845,36.58736,0.2091841,0,45.5507,-8.791845,3583.096,17102.4
1060,53.0,-8.833579,-0.2104335,0.005684191,0,0,0,0,0,8.833579,36.76104,0.2104335,0,45.82495,-8.833579,3594.624,17123.2
1065,53.25,-8.875178,-0.2113669,0.005709406,0,0,0,0,0,8.875178,36.93415,0.2113669,0,46.09908,-8.875178,3600.685,17118.6
1070,53.5,-8.916778,-0.212593,0.005742525,0,0,0,0,0,8.916779,37.10727,0.212593,0,46.37396,-8.916778,3611.631,17137.5
1075,53.75,-8.958512,-0.2136423,0.005770869,0,0,0,0,0,8.958512,37.28094,0.2136423,0,46.65049,-8.958512,3619.434,17141.9
1080,54.0,-8.999978,-0.2145523,0.00579545,0,0,0,0,0,8.999978,37.45351,0.2145523,0,46.926,-8.999978,3624.851,17135.6
1085,54.25,-9.041712,-0.2158974,0.005831783,0,0,0,0,0,9.041712,37.62718,0.2158974,0,47.20406,-9.041712,3637.447,17163.4
1090,54.5,-9.083578,-0.216855,0.00585765,0,0,0,0,0,9.083578,37.80141,0.216855,0,47.48379,-9.083578,3643.375,17160.1
1095,54.75,-9.125045,-0.2178936,0.005885703,0,0,0,0,0,9.125045,37.97397,0.2178936,0,47.76161,-9.125045,3650.668,17163.9
1100,55.0,-9.166911,-0.2187385,0.005908525,0,0,0,0,0,9.166911,38.1482,0.2187385,0,48.0429,-9.166911,3654.529,17151.8
1105,55.25,-9.208511,-0.2201153,0.005945715,0,0,0,0,0,9.20851,38.32132,0.2201153,0,48.32318,-9.208511,3667.239,17181.8
1110,55.5,-9.249845,-0.2207805,0.005963683,0,0,0,0,0,9.249845,38.49333,0.2207805,0,48.60246,-9.249845,3668.062,17156.7
1115,55.75,-9.291844,-0.2220373,0.005997631,0,0,0,0,0,9.291844,38.66811,0.2220373,0,48.88703,-9.291844,3678.46,17176.4
1120,56.0,-9.333577,-0.2229066,0.006021112,0,0,0,0,0,9.333577,38.84179,0.2229065,0,49.1706,-9.333577,3682.405,17166.5
1125,56.25,-9.375311,-0.2239062,0.006048113,0,0,0,0,0,9.375311,39.01546,0.2239061,0,49.45498,-9.375311,3688.414,17166.7
1130,56.5,-9.416777,-0.2248482,0.006073559,0,0,0,0,0,9.416777,39.18802,0.2248482,0,49.73834,-9.416777,3693.451,17163
1135,56.75,-9.458377,-0.2257891,0.006098974,0,0,0,0,0,9.458377,39.36114,0.2257891,0,50.02342,-9.458377,3698.349,17159.1
1140,57.0,-9.500244,-0.227015,0.00613209,0,0,0,0,0,9.500244,39.53537,0.227015,0,50.31116,-9.500244,3707.746,17176.2
1145,57.25,-9.541577,-0.2275277,0.006145937,0,0,0,0,0,9.541576,39.70738,0.2275277,0,50.59604,-9.541577,3705.547,17140.4
1150,57.5,-9.58331,-0.2288747,0.006182322,0,0,0,0,0,9.58331,39.88105,0.2288747,0,50.88451,-9.58331,3716.747,17166.8
1155,57.75,-9.62531,-0.2294282,0.006197275,0,0,0,0,0,9.62531,40.05584,0.2294282,0,51.17566,-9.62531,3714.905,17133.2
1160,58.0,-9.666776,-0.2303907,0.006223273,0,0,0,0,0,9.666777,40.2284,0.2303907,0,51.46395,-9.666776,3719.75,17131.3
1165,58.25,-9.70851,-0.2309867,0.006239372,0,0,0,0,0,9.708509,40.40207,0.2309867,0,51.75494,-9.70851,3718.537,17101.8
1170,58.5,-9.750243,-0.2315792,0.006255376,0,0,0,0,0,9.750243,40.57574,0.2315792,0,52.04677,-9.750243,3717.211,17072.3
1175,58.75,-9.791976,-0.2322506,0.006273511,0,0,0,0,0,9.791976,40.74942,0.2322506,0,52.33945,-9.791976,3717.092,17048.8
1180,59.0,-9.833176,-0.2327585,0.00628723,0,0,0,0,0,9.833176,40.92087,0.2327585,0,52.62924,-9.833176,3714.441,17014.5
1185,59.25,-9.875176,-0.2339325,0.006318944,0,0,0,0,0,9.875176,41.09566,0.2339325,0,52.92553,-9.875176,3722.133,17027.6
1190,59.5,-9.916776,-0.2346455,0.006338201,0,0,0,0,0,9.916776,41.26877,0.2346455,0,53.21986,-9.916776,3722.504,17007.8
1195,59.75,-9.958109,-0.235531,0.006362122,0,0,0,0,0,9.958109,41.44078,0.235531,0,53.51316,-9.958109,3725.609,17001.2
1200,60.0,-10.00024,-0.236774,0.006395698,0,0,0,0,0,10.00024,41.61612,0.236774,0,53.81303,-10.00024,3734.057,17018.9
1205,60.25,-10.04184,-0.2377139,0.006421085,0,0,0,0,0,10.04184,41.78924,0.2377139,0,54.10999,-10.04184,3737.762,17015.7
1210,60.5,-10.08344,-0.2390399,0.006456904,0,0,0,0,0,10.08344,41.96236,0.2390399,0,54.40784,-10.08344,3747.435,17040
1215,60.75,-10.12518,-0.2401136,0.006485905,0,0,0,0,0,10.12518,42.13603,0.2401136,0,54.70752,-10.12518,3753.003,17046
1220,61.0,-10.16678,-0.2414552,0.006522145,0,0,0,0,0,10.16678,42.30915,0.2414552,0,55.00716,-10.16678,3762.681,17071.1
1225,61.25,-10.20864,-0.2426699,0.006554957,0,0,0,0,0,10.20864,42.48338,0.2426699,0,55.30962,-10.20864,3770.19,17086.6
1230,61.5,-10.24998,-0.2439946,0.006590739,0,0,0,0,0,10.24998,42.65538,0.2439946,0,55.60912,-10.24998,3779.434,17110.6
1235,61.75,-10.29184,-0.2453782,0.006628114,0,0,0,0,0,10.29184,42.82961,0.2453783,0,55.91341,-10.29184,3789.318,17137.6
1240,62.0,-10.33358,-0.246651,0.006662493,0,0,0,0,0,10.33358,43.00329,0.246651,0,56.21766,-10.33358,3797.402,17156.9
1245,62.25,-10.37504,-0.2477452,0.006692049,0,0,0,0,0,10.37504,43.17585,0.2477452,0,56.52088,-10.37504,3802.7,17164.2
1250,62.5,-10.41691,-0.2489646,0.006724988,0,0,0,0,0,10.41691,43.35008,0.2489646,0,56.82796,-10.41691,3809.701,17179.3
1255,62.75,-10.45851,-0.2497924,0.006747347,0,0,0,0,0,10.45851,43.52319,0.2497924,0,57.13402,-10.45851,3810.686,17167.9
1260,63.0,-10.50011,-0.2503823,0.006763282,0,0,0,0,0,10.50011,43.69632,0.2503823,0,57.44102,-10.50011,3807.977,17140.2
1265,63.25,-10.54197,-0.2519017,0.006804325,0,0,0,0,0,10.54198,43.87054,0.2519017,0,57.75094,-10.54197,3819.231,17175.8
1270,63.5,-10.58331,-0.2528876,0.006830954,0,0,0,0,0,10.58331,44.04255,0.2528875,0,58.05786,-10.58331,3822.427,17175.6
1275,63.75,-10.62491,-0.2542006,0.006866421,0,0,0,0,0,10.62491,44.21567,0.2542006,0,58.36772,-10.62491,3830.387,17197.2
1280,64.0,-10.66691,-0.2558007,0.006909644,0,0,0,0,0,10.66691,44.39045,0.2558007,0,58.68153,-10.66691,3842.422,17237.3
1285,64.25,-10.70864,-0.2571455,0.006945967,0,0,0,0,0,10.70864,44.56413,0.2571455,0,58.99432,-10.70864,3850.558,17260.4
1290,64.5,-10.74984,-0.2587217,0.006988545,0,0,0,0,0,10.74984,44.73558,0.2587217,0,59.30409,-10.74984,3862.179,17299.7
1295,64.75,-10.79197,-0.2600993,0.007025756,0,0,0,0,0,10.79197,44.91092,0.2600993,0,59.62187,-10.79197,3870.424,17323.9
1300,65.0,-10.83371,-0.2616759,0.007068342,0,0,0,0,0,10.83371,45.08459,0.2616759,0,59.93762,-10.83371,3881.609,17361.8
1305,65.25,-10.87504,-0.2629828,0.007103644,0,0,0,0,0,10.87504,45.2566,0.2629828,0,60.25134,-10.87504,3888.776,17382.2
1310,65.5,-10.91704,-0.2646127,0.007147671,0,0,0,0,0,10.91704,45.43139,0.2646127,0,60.57113,-10.91704,3900.385,17422.6
1315,65.75,-10.95851,-0.2660107,0.007185434,0,0,0,0,0,10.95851,45.60395,0.2660107,0,60.88786,-10.95851,3908.592,17448.4
1320,66.0,-11.00011,-0.2674123,0.007223293,0,0,0,0,0,11.00011,45.77706,0.2674123,0,61.20662,-11.00011,3916.682,17474
1325,66.25,-11.04184,-0.2686337,0.007256284,0,0,0,0,0,11.04184,45.95074,0.2686337,0,61.52743,-11.04184,3921.968,17487.4
1330,66.5,-11.08344,-0.2699645,0.007292233,0,0,0,0,0,11.08344,46.12386,0.2699645,0,61.84824,-11.08344,3928.774,17508.1
1335,66.75,-11.12517,-0.2712864,0.007327939,0,0,0,0,0,11.12517,46.29753,0.2712864,0,62.17111,-11.12517,3935.284,17527.9
1340,67.0,-11.16664,-0.2726031,0.007363506,0,0,0,0,0,11.16664,46.47009,0.2726031,0,62.49297,-11.16664,3941.678,17547.5
1345,67.25,-11.20837,-0.2739345,0.00739947,0,0,0,0,0,11.20837,46.64377,0.2739345,0,62.81794,-11.20837,3948.078,17567.6
1350,67.5,-11.25024,-0.2753818,0.007438563,0,0,0,0,0,11.25024,46.81799,0.2753818,0,63.14501,-11.25024,3955.977,17594.7
1355,67.75,-11.29144,-0.2767579,0.007475734,0,0,0,0,0,11.29144,46.98945,0.2767579,0,63.46792,-11.29144,3962.928,17618.1
1360,68.0,-11.33357,-0.2783926,0.007519891,0,0,0,0,0,11.33357,47.16479,0.2783926,0,63.79923,-11.33357,3973.15,17656.2
1365,68.25,-11.37531,-0.2799341,0.007561531,0,0,0,0,0,11.37531,47.33846,0.2799341,0,64.12848,-11.37531,3982.019,17688.9
1370,68.5,-11.41664,-0.2808685,0.00758677,0,0,0,0,0,11.41664,47.51047,0.2808685,0,64.45565,-11.41664,3982.26,17683.7
1375,68.75,-11.45851,-0.2819434,0.007615804,0,0,0,0,0,11.45851,47.6847,0.2819434,0,64.78813,-11.45851,3984.231,17686.5
1380,69.0,-11.50037,-0.2823525,0.007626854,0,0,0,0,0,11.50037,47.85892,0.2823524,0,65.12171,-11.50037,3976.724,17647.7
1385,69.25,-11.54184,-0.2832358,0.007650716,0,0,0,0,0,11.54184,48.03149,0.2832358,0,65.45322,-11.54184,3975.963,17639.3
1390,69.5,-11.5833,-0.2841098,0.007674323,0,0,0,0,0,11.58331,48.20405,0.2841098,0,65.78582,-11.5833,3974.988,17630.3
1395,69.75,-11.6253,-0.2851955,0.00770365,0,0,0,0,0,11.62531,48.37883,0.2851955,0,66.12384,-11.6253,3976.714,17633.8
1400,70.0,-11.66664,-0.2864358,0.007737152,0,0,0,0,0,11.66664,48.55084,0.2864358,0,66.45761,-11.66664,3980.7,17647.7
1405,70.25,-11.70837,-0.2873145,0.007760887,0,0,0,0,0,11.70837,48.72452,0.2873144,0,66.79574,-11.70837,3979.432,17638.8
1410,70.5,-11.75024,-0.2883102,0.007787785,0,0,0,0,0,11.75024,48.89875,0.2883102,0,67.13611,-11.75024,3979.656,17636.8
1415,70.75,-11.79157,-0.2891853,0.007811421,0,0,0,0,0,11.79157,49.07075,0.2891853,0,67.47328,-11.79157,3978.298,17628.4
1420,71.0,-11.83357,-0.2904831,0.007846478,0,0,0,0,0,11.83357,49.24554,0.2904831,0,67.81706,-11.83357,3982.438,17644.6
1425,71.25,-11.87517,-0.290306,0.007841694,0,0,0,0,0,11.87517,49.41866,0.290306,0,68.15874,-11.87517,3966.434,17572.1
1430,71.5,-11.91677,-0.2905354,0.00784789,0,0,0,0,0,11.91677,49.59177,0.2905354,0,68.50158,-11.91677,3955.982,17524.6
1435,71.75,-11.9585,-0.2914351,0.007872193,0,0,0,0,0,11.9585,49.76545,0.2914351,0,68.84671,-11.9585,3954.561,17517.5
1440,72.0,-12.0001,-0.290938,0.007858765,0,0,0,0,0,12.0001,49.93857,0.290938,0,69.19193,-12.0001,3934.211,17427
1445,72.25,-12.04197,-0.2924272,0.007898992,0,0,0,0,0,12.04197,50.1128,0.2924272,0,69.54056,-12.04197,3940.586,17455.3
1450,72.5,-12.08344,-0.2928234,0.007909694,0,0,0,0,0,12.08344,50.28536,0.2928234,0,69.88707,-12.08344,3932.276,17419
1455,72.75,-12.12517,-0.2934546,0.007926743,0,0,0,0,0,12.12517,50.45903,0.2934546,0,70.23702,-12.12517,3926.985,17396.4
1460,73.0,-12.16704,-0.2955786,0.007984117,0,0,0,0,0,12.16704,50.63326,0.2955786,0,70.58933,-12.16704,3941.498,17462.1
1465,73.25,-12.2081,-0.2952235,0.007974524,0,0,0,0,0,12.2081,50.80416,0.2952235,0,70.9361,-12.2081,3923.135,17382.4
1470,73.5,-12.2501,-0.2978629,0.008045819,0,0,0,0,0,12.2501,50.97894,0.2978629,0,71.29202,-12.2501,3944.146,17477.7
1475,73.75,-12.29197,-0.2979407,0.00804792,0,0,0,0,0,12.29197,51.15317,0.2979406,0,71.64807,-12.29197,3931.154,17422.7
1480,74.0,-12.33344,-0.3003985,0.008114312,0,0,0,0,0,12.33344,51.32573,0.3003985,0,72.00197,-12.33344,3949.582,17507.4
1485,74.25,-12.37517,-0.2999963,0.008103448,0,0,0,0,0,12.37517,51.4994,0.2999963,0,72.35941,-12.37517,3930.221,17425
1490,74.5,-12.4169,-0.3020264,0.008158282,0,0,0,0,0,12.4169,51.67308,0.3020264,0,72.71814,-12.4169,3942.647,17483.9
1495,74.75,-12.45864,-0.302668,0.008175614,0,0,0,0,0,12.45864,51.84675,0.302668,0,73.07816,-12.45864,3936.824,17462.4
1500,75.0,-12.49984,-0.3034303,0.008196204,0,0,0,0,0,12.49984,52.01821,0.3034303,0,73.43485,-12.49984,3932.686,17448.6
1505,75.25,-12.54184,-0.3042993,0.008219677,0,0,0,0,0,12.54184,52.19299,0.3042993,0,73.79979,-12.54184,3929.582,17440
1510,75.5,-12.58357,-0.3053687,0.008248565,0,0,0,0,0,12.58357,52.36666,0.3053687,0,74.16373,-12.58357,3929.066,17443.3
1515,75.75,-12.6249,-0.3062005,0.008271034,0,0,0,0,0,12.6249,52.53867,0.3062005,0,74.52549,-12.6249,3925.542,17433.5
1520,76.0,-12.66704,-0.3071044,0.008295448,0,0,0,0,0,12.66704,52.71401,0.3071044,0,74.89561,-12.66704,3922.585,17426.8
1525,76.25,-12.7085,-0.3085407,0.008334247,0,0,0,0,0,12.7085,52.88657,0.3085408,0,75.26121,-12.7085,3926.55,17451.2
1530,76.5,-12.7501,-0.3098082,0.008368485,0,0,0,0,0,12.7501,53.05969,0.3098082,0,75.62934,-12.7501,3928.193,17465.7
1535,76.75,-12.79197,-0.3113657,0.008410556,0,0,0,0,0,12.79197,53.23392,0.3113657,0,76.0012,-12.79197,3933.287,17496.1
1540,77.0,-12.8333,-0.3127568,0.008448132,0,0,0,0,0,12.8333,53.40593,0.3127568,0,76.36968,-12.8333,3936.329,17517.6
1545,77.25,-12.87517,-0.3142795,0.008489262,0,0,0,0,0,12.87517,53.58015,0.3142795,0,76.74431,-12.87517,3940.702,17545.7
1550,77.5,-12.91663,-0.3158292,0.008531122,0,0,0,0,0,12.91663,53.75272,0.3158292,0,77.11675,-12.91663,3945.412,17575.6
1555,77.75,-12.9585,-0.3170493,0.00856408,0,0,0,0,0,12.9585,53.92694,0.3170493,0,77.49419,-12.9585,3945.733,17586.5
1560,78.0,-13.00023,-0.3184304,0.008601384,0,0,0,0,0,13.00023,54.10062,0.3184304,0,77.87186,-13.00023,3947.982,17606.4
1565,78.25,-13.0417,-0.3198242,0.008639034,0,0,0,0,0,13.0417,54.27318,0.3198242,0,78.24853,-13.0417,3950.355,17627.2
1570,78.5,-13.0837,-0.3213138,0.008679272,0,0,0,0,0,13.0837,54.44797,0.3213138,0,78.63149,-13.0837,3953.585,17652.5
1575,78.75,-13.12517,-0.3223184,0.008706409,0,0,0,0,0,13.12517,54.62053,0.3223184,0,79.01104,-13.12517,3950.922,17651.7
1580,79.0,-13.16677,-0.3235157,0.008738748,0,0,0,0,0,13.16677,54.79365,0.3235157,0,79.39326,-13.16677,3950.469,17661.3
1585,79.25,-13.20863,-0.3243766,0.008762002,0,0,0,0,0,13.20863,54.96788,0.3243766,0,79.77941,-13.20863,3945.716,17652.2
1590,79.5,-13.2501,-0.32577,0.008799642,0,0,0,0,0,13.2501,55.14044,0.32577,0,80.16335,-13.2501,3947.481,17672.6
1595,79.75,-13.2917,-0.3268185,0.008827963,0,0,0,0,0,13.2917,55.31356,0.3268185,0,80.55001,-13.2917,3944.902,17673.9
1600,80.0,-13.33343,-0.3281072,0.008862773,0,0,0,0,0,13.33343,55.48723,0.3281072,0,80.93941,-13.33343,3945.066,17688.1
1605,80.25,-13.37517,-0.3295842,0.00890267,0,0,0,0,0,13.37517,55.66091,0.3295842,0,81.33035,-13.37517,3947.363,17712.3
1610,80.50001,-13.41663,-0.3306487,0.008931424,0,0,0,0,0,13.41663,55.83347,0.3306487,0,81.72029,-13.41663,3944.7,17714.6
1615,80.75001,-13.45863,-0.3320121,0.008968251,0,0,0,0,0,13.45863,56.00825,0.3320121,0,82.11681,-13.45863,3945.29,17732.1
1620,81.00001,-13.50037,-0.3334303,0.009006561,0,0,0,0,0,13.50037,56.18193,0.3334303,0,82.51238,-13.50037,3946.501,17752.8
1625,81.25001,-13.54157,-0.3345756,0.009037497,0,0,0,0,0,13.54157,56.35338,0.3345756,0,82.90444,-13.54157,3944.562,17759.6
1630,81.50001,-13.5837,-0.3361758,0.00908072,0,0,0,0,0,13.5837,56.52872,0.3361758,0,83.30696,-13.5837,3947.506,17789.2
1635,81.75001,-13.62517,-0.3374805,0.009115962,0,0,0,0,0,13.62517,56.70128,0.3374805,0,83.70471,-13.62517,3947.095,17803.9
1640,82.00001,-13.66677,-0.3391593,0.009161312,0,0,0,0,0,13.66677,56.8744,0.3391593,0,84.10534,-13.66677,3950.871,17838
1645,82.25001,-13.7085,-0.3405926,0.009200025,0,0,0,0,0,13.7085,57.04807,0.3405926,0,84.50887,-13.7085,3951.588,17858.8
1650,82.50001,-13.74997,-0.3424184,0.009249346,0,0,0,0,0,13.74997,57.22064,0.3424185,0,84.91144,-13.74997,3956.811,17900.4
1655,82.75001,-13.79197,-0.3444225,0.009303479,0,0,0,0,0,13.79197,57.39542,0.3444225,0,85.32084,-13.79197,3963.708,17950.3
1660,83.00001,-13.8333,-0.3463423,0.009355336,0,0,0,0,0,13.8333,57.56743,0.3463423,0,85.72539,-13.8333,3969.71,17996.5
1665,83.25001,-13.8749,-0.3486642,0.009418055,0,0,0,0,0,13.8749,57.74055,0.3486642,0,86.13421,-13.8749,3980.019,18062.8
1670,83.50001,-13.9169,-0.3510187,0.009481654,0,0,0,0,0,13.9169,57.91533,0.3510187,0,86.54867,-13.9169,3990.323,18129.9
1675,83.75001,-13.95823,-0.3533038,0.009543381,0,0,0,0,0,13.95823,58.08734,0.3533038,0,86.95822,-13.95823,3999.885,18193.9
1680,84.00001,-14.00023,-0.3556887,0.009607799,0,0,0,0,0,14.00023,58.26212,0.3556887,0,87.37611,-14.00023,4010.092,18261.7
1685,84.25001,-14.0421,-0.3584541,0.009682498,0,0,0,0,0,14.0421,58.43635,0.3584541,0,87.79442,-14.0421,4024.4,18348.8
1690,84.50001,-14.0833,-0.3607532,0.009744602,0,0,0,0,0,14.0833,58.6078,0.3607532,0,88.20778,-14.0833,4033.505,18412.5
1695,84.75001,-14.1253,-0.3628042,0.009800003,0,0,0,0,0,14.1253,58.78259,0.3628042,0,88.63094,-14.1253,4039.308,18462.1
1700,85.00001,-14.1669,-0.3652284,0.009865485,0,0,0,0,0,14.1669,58.95571,0.3652284,0,89.05184,-14.1669,4049.219,18530.9
1705,85.25001,-14.20863,-0.3669701,0.00991253,0,0,0,0,0,14.20863,59.12938,0.3669701,0,89.47586,-14.20863,4051.313,18564.6
1710,85.50001,-14.25023,-0.3699578,0.009993234,0,0,0,0,0,14.25023,59.3025,0.3699578,0,89.90034,-14.25023,4066.997,18661.1
1715,85.75001,-14.29197,-0.3718292,0.01004378,0,0,0,0,0,14.29197,59.47617,0.3718292,0,90.328,-14.29197,4070.126,18700.7
1720,86.00001,-14.33343,-0.3744159,0.01011366,0,0,0,0,0,14.33343,59.64874,0.3744159,0,90.75474,-14.33343,4080.988,18776.4
1725,86.25001,-14.37503,-0.376545,0.01017117,0,0,0,0,0,14.37503,59.82185,0.376545,0,91.1847,-14.37503,4086.586,18828.5
1730,86.50001,-14.4169,-0.3785037,0.01022407,0,0,0,0,0,14.4169,59.99608,0.3785037,0,91.61927,-14.4169,4090.03,18871.5
1735,86.75001,-14.45823,-0.380748,0.0102847,0,0,0,0,0,14.45823,60.16809,0.380748,0,92.05018,-14.45823,4096.591,18929.1
1740,87.00001,-14.5001,-0.3828652,0.01034189,0,0,0,0,0,14.5001,60.34232,0.3828652,0,92.48855,-14.5001,4101.352,18979.4
1745,87.25001,-14.54196,-0.385143,0.01040341,0,0,0,0,0,14.54196,60.51654,0.385143,0,92.92884,-14.54196,4107.627,19037.3
1750,87.50001,-14.5833,-0.3873005,0.01046169,0,0,0,0,0,14.5833,60.68856,0.3873005,0,93.36545,-14.5833,4112.642,19089.7
1755,87.75001,-14.62516,-0.3894405,0.0105195,0,0,0,0,0,14.62516,60.86279,0.3894405,0,93.80964,-14.62516,4117.039,19140.3
1760,88.00001,-14.66676,-0.3919352,0.01058688,0,0,0,0,0,14.66676,61.0359,0.3919352,0,94.25295,-14.66676,4125.084,19208.2
1765,88.25001,-14.70863,-0.3944804,0.01065563,0,0,0,0,0,14.70863,61.21013,0.3944804,0,94.7011,-14.70863,4133.307,19277.9
1770,88.50001,-14.7501,-0.3969616,0.01072266,0,0,0,0,0,14.7501,61.38269,0.3969616,0,95.14696,-14.7501,4140.801,19344.6
1775,88.75001,-14.7917,-0.3986374,0.01076792,0,0,0,0,0,14.7917,61.55581,0.3986374,0,95.59626,-14.7917,4139.641,19371.7
1780,89.00001,-14.8337,-0.4013122,0.01084017,0,0,0,0,0,14.8337,61.73059,0.4013122,0,96.05194,-14.8337,4148.47,19446.4
1785,89.25001,-14.87476,-0.4036557,0.01090347,0,0,0,0,0,14.87476,61.90149,0.4036557,0,96.49951,-14.87476,4154.061,19506
1790,89.50001,-14.91676,-0.4066084,0.01098324,0,0,0,0,0,14.91676,62.07627,0.4066084,0,96.95933,-14.91676,4165.252,19593.4
1795,89.75001,-14.95863,-0.4095377,0.01106236,0,0,0,0,0,14.95863,62.2505,0.4095377,0,97.41981,-14.95863,4175.985,19679.3
1800,90.00001,-15.0001,-0.4113997,0.01111265,0,0,0,0,0,15.0001,62.42307,0.4113997,0,97.87798,-15.0001,4175.795,19714.1
1803,90.14401,-15.02383,-0.4136952,0.01117466,0,0,0,0,0,15.02383,62.52184,0.4136952,0,98.14117,-15.02383,4188.058,19792.8