File: GFBaking/em/1_g13_4.csv
,Time sec,Extension mm,Load kgf,Compressive stress MPa,Cycle Count ,Total Cycle Count ,Repetitions Count ,Marked Data ,PIP Count ,Compressive extension mm,Compressive strain %,Compressive load kgf,Displacement (Strain 1) mm,True strain %,Corrected Position mm,True stress Pa,Elastic Modulus
0,0.0,-0.000133333,-0.02556578,0.0006092539,0,0,0,0,0,0.0,0.0,0.02556578,0,0.0,-0.000133333,609.2539,inf
5,0.25,-0.03479992,-0.03006609,0.0007165,0,0,0,0,0,0.03466658,0.1529858,0.03006609,0,0.1531029,-0.03479992,715.4039,623409
10,0.5,-0.08173313,-0.03607331,0.000859657,0,0,0,0,0,0.08159979,0.360105,0.03607331,0,0.3607549,-0.08173313,856.5613,317764
15,0.7500001,-0.1246664,-0.0405984,0.0009674936,0,0,0,0,0,0.124533,0.5495721,0.0405984,0,0.5510877,-0.1246664,962.1765,234332
20,1.0,-0.1665329,-0.04505024,0.001073585,0,0,0,0,0,0.1663996,0.7343318,0.04505024,0,0.7370413,-0.1665329,1065.701,194604
25,1.25,-0.2083995,-0.04920224,0.00117253,0,0,0,0,0,0.2082662,0.9190916,0.04920224,0,0.9233413,-0.2083995,1161.754,169814
30,1.5,-0.250266,-0.05344914,0.001273737,0,0,0,0,0,0.2501327,1.103851,0.05344914,0,1.109989,-0.250266,1259.677,153595
35,1.75,-0.2917326,-0.05769184,0.001374844,0,0,0,0,0,0.2915993,1.286846,0.05769183,0,1.295198,-0.2917326,1357.152,142212
40,2.0,-0.3334659,-0.06142258,0.001463751,0,0,0,0,0,0.3333325,1.471017,0.06142258,0,1.481944,-0.3334659,1442.219,132452
45,2.25,-0.3751991,-0.0656771,0.00156514,0,0,0,0,0,0.3750657,1.655189,0.06567711,0,1.66904,-0.3751991,1539.234,125868
50,2.5,-0.416799,-0.0696895,0.001660759,0,0,0,0,0,0.4166656,1.838772,0.0696895,0,1.855887,-0.416799,1630.221,120223
55,2.75,-0.4585322,-0.07384552,0.0017598,0,0,0,0,0,0.4583989,2.022943,0.07384551,0,2.043685,-0.4585322,1724.2,115794
60,3.0,-0.5001321,-0.07795549,0.001857744,0,0,0,0,0,0.4999987,2.206526,0.07795548,0,2.231234,-0.5001321,1816.753,112069
65,3.25,-0.5419987,-0.08212998,0.001957226,0,0,0,0,0,0.5418653,2.391286,0.08212998,0,2.420341,-0.5419987,1910.423,108948
70,3.5,-0.5834653,-0.08599394,0.002049307,0,0,0,0,0,0.583332,2.574281,0.08599395,0,2.607995,-0.5834653,1996.552,105964
75,3.75,-0.6249318,-0.08993551,0.002143238,0,0,0,0,0,0.6247985,2.757275,0.08993551,0,2.796001,-0.6249318,2084.143,103466
80,4.0,-0.6671984,-0.09464305,0.002255423,0,0,0,0,0,0.6670651,2.9438,0.09464305,0,2.987999,-0.6671984,2189.028,101983
85,4.25,-0.7083983,-0.09810122,0.002337834,0,0,0,0,0,0.708265,3.125618,0.09810121,0,3.175508,-0.7083983,2264.762,99560.2
90,4.5,-0.7501315,-0.1024966,0.002442578,0,0,0,0,0,0.7499982,3.309789,0.1024966,0,3.365802,-0.7501315,2361.734,98232.8
95,4.75,-0.7918648,-0.1064137,0.002535927,0,0,0,0,0,0.7917314,3.49396,0.1064137,0,3.556459,-0.7918648,2447.323,96611.1
100,5.0,-0.8333313,-0.1103671,0.002630139,0,0,0,0,0,0.833198,3.676955,0.1103671,0,3.746259,-0.8333313,2533.431,95213.5
105,5.25,-0.8751979,-0.1143076,0.002724045,0,0,0,0,0,0.8750645,3.861715,0.1143076,0,3.938256,-0.8751979,2618.85,93895
110,5.5,-0.9169311,-0.1182402,0.002817763,0,0,0,0,0,0.9167978,4.045886,0.1182402,0,4.130009,-0.9169311,2703.759,92704.1
115,5.75,-0.9586643,-0.1222528,0.002913386,0,0,0,0,0,0.958531,4.230057,0.1222528,0,4.32213,-0.9586643,2790.148,91676.9
120,6.0,-0.9999976,-0.1261691,0.003006716,0,0,0,0,0,0.9998643,4.412464,0.1261691,0,4.512775,-0.9999976,2874.045,90702.5
125,6.25,-1.041997,-0.1299016,0.003095664,0,0,0,0,0,1.041864,4.597812,0.1299016,0,4.706867,-1.041997,2953.331,89621.2
130,6.5,-1.083597,-0.1338878,0.003190658,0,0,0,0,0,1.083464,4.781395,0.1338878,0,4.899483,-1.083597,3038.1,88824.7
135,6.75,-1.124931,-0.13773,0.00328222,0,0,0,0,0,1.124797,4.963801,0.13773,0,5.091232,-1.124931,3119.297,88016
140,7.0,-1.166931,-0.1414914,0.003371859,0,0,0,0,0,1.166797,5.149149,0.1414914,0,5.286452,-1.166931,3198.237,87165
145,7.25,-1.20853,-0.1452169,0.003460638,0,0,0,0,0,1.208397,5.332732,0.1452169,0,5.480188,-1.20853,3276.092,86380.3
150,7.5,-1.249997,-0.1487545,0.003544944,0,0,0,0,0,1.249864,5.515727,0.1487545,0,5.673678,-1.249997,3349.414,85548.9
155,7.75,-1.291864,-0.1523352,0.003630275,0,0,0,0,0,1.29173,5.700486,0.1523352,0,5.869415,-1.291864,3423.331,84768.8
160,8.0,-1.333463,-0.1555585,0.003707088,0,0,0,0,0,1.33333,5.884069,0.1555585,0,6.064286,-1.333463,3488.96,83861.6
165,8.25,-1.37533,-0.1587754,0.00378375,0,0,0,0,0,1.375197,6.068829,0.1587754,0,6.260789,-1.37533,3554.12,82990
170,8.5,-1.416663,-0.1621549,0.003864285,0,0,0,0,0,1.41653,6.251235,0.1621549,0,6.45517,-1.416663,3622.72,82283.3
175,8.75,-1.45853,-0.1656692,0.003948034,0,0,0,0,0,1.458396,6.435995,0.1656692,0,6.652444,-1.45853,3693.939,81653.3
180,9.0,-1.500396,-0.1691027,0.004029859,0,0,0,0,0,1.500263,6.620754,0.1691027,0,6.850107,-1.500396,3763.052,81019.7
185,9.25,-1.54173,-0.1724795,0.004110331,0,0,0,0,0,1.541596,6.803161,0.1724795,0,7.045638,-1.54173,3830.698,80421.9
190,9.5,-1.58373,-0.1755343,0.004183129,0,0,0,0,0,1.583596,6.988509,0.1755344,0,7.244715,-1.58373,3890.791,79675.6
195,9.75,-1.625196,-0.178771,0.004260262,0,0,0,0,0,1.625063,7.171504,0.178771,0,7.441652,-1.625196,3954.737,79074.1
200,10.0,-1.666663,-0.1818534,0.004333718,0,0,0,0,0,1.666529,7.354498,0.1818534,0,7.638979,-1.666663,4014.995,78436.1
205,10.25,-1.708662,-0.185189,0.004413208,0,0,0,0,0,1.708529,7.539846,0.185189,0,7.839241,-1.708662,4080.459,77911.2
210,10.5,-1.750129,-0.1882141,0.004485299,0,0,0,0,0,1.749996,7.722841,0.1882141,0,8.037354,-1.750129,4138.906,77307.6
215,10.75,-1.791729,-0.1912496,0.004557637,0,0,0,0,0,1.791596,7.906424,0.1912496,0,8.2365,-1.791729,4197.291,76730.5
220,11.0,-1.833596,-0.1945524,0.004636346,0,0,0,0,0,1.833462,8.091184,0.1945524,0,8.437323,-1.833596,4261.211,76273.2
225,11.25,-1.875195,-0.1974133,0.004704524,0,0,0,0,0,1.875062,8.274767,0.1974133,0,8.637268,-1.875195,4315.236,75677.7
230,11.5,-1.916662,-0.2005436,0.00477912,0,0,0,0,0,1.916529,8.457761,0.2005436,0,8.836969,-1.916662,4374.914,75214.4
235,11.75,-1.958262,-0.2035557,0.004850901,0,0,0,0,0,1.958129,8.641344,0.2035557,0,9.037715,-1.958262,4431.718,74722.1
240,12.0,-2.000262,-0.206447,0.004919804,0,0,0,0,0,2.000129,8.826693,0.206447,0,9.240802,-2.000262,4485.548,74192.1
245,12.25,-2.041595,-0.2090854,0.004982679,0,0,0,0,0,2.041462,9.009098,0.2090854,0,9.441066,-2.041595,4533.785,73619
250,12.5,-2.083728,-0.2117666,0.005046573,0,0,0,0,0,2.083595,9.195035,0.2117666,0,9.645622,-2.083728,4582.539,73055.3
255,12.75,-2.125328,-0.2143885,0.005109055,0,0,0,0,0,2.125195,9.378618,0.2143885,0,9.848,-2.125328,4629.897,72512
260,13.0,-2.166795,-0.2168693,0.005168176,0,0,0,0,0,2.166662,9.561613,0.2168693,0,10.05014,-2.166795,4674.015,71947.3
265,13.25,-2.208528,-0.2193862,0.005228156,0,0,0,0,0,2.208395,9.745784,0.2193862,0,10.25399,-2.208528,4718.631,71406.8
270,13.5,-2.250128,-0.2221395,0.00529377,0,0,0,0,0,2.249995,9.929367,0.2221395,0,10.4576,-2.250128,4768.132,70966.2
275,13.75,-2.291994,-0.2244969,0.005349949,0,0,0,0,0,2.291861,10.11413,0.2244969,0,10.66294,-2.291994,4808.848,70409.2
280,14.0,-2.333194,-0.2270198,0.005410071,0,0,0,0,0,2.333061,10.29594,0.2270198,0,10.86542,-2.333194,4853.053,69943.1
285,14.25,-2.375194,-0.2294948,0.005469052,0,0,0,0,0,2.375061,10.48129,0.2294948,0,11.07226,-2.375194,4895.824,69455.3
290,14.5,-2.416927,-0.2319727,0.005528104,0,0,0,0,0,2.416794,10.66546,0.2319727,0,11.2782,-2.416927,4938.506,68992.9
295,14.75,-2.458261,-0.2341826,0.005580767,0,0,0,0,0,2.458127,10.84787,0.2341826,0,11.48259,-2.458261,4975.373,68479
300,15.0,-2.50026,-0.2365095,0.005636218,0,0,0,0,0,2.500127,11.03322,0.2365095,0,11.69071,-2.50026,5014.362,67997.6
305,15.25,-2.541994,-0.238659,0.005687442,0,0,0,0,0,2.54186,11.21739,0.238659,0,11.89794,-2.541994,5049.46,67489.1
310,15.5,-2.583327,-0.240834,0.005739275,0,0,0,0,0,2.583194,11.3998,0.240834,0,12.1036,-2.583327,5085.01,67014.4
315,15.75,-2.62506,-0.242624,0.005781932,0,0,0,0,0,2.624927,11.58397,0.242624,0,12.31169,-2.62506,5112.155,66439.1
320,16.0,-2.66706,-0.2447247,0.005831994,0,0,0,0,0,2.666927,11.76931,0.2447247,0,12.52154,-2.66706,5145.608,65959
325,16.25,-2.70866,-0.2462601,0.005868584,0,0,0,0,0,2.708527,11.9529,0.2462601,0,12.72983,-2.70866,5167.118,65353.4
330,16.5,-2.75026,-0.248225,0.005915409,0,0,0,0,0,2.750127,12.13648,0.248225,0,12.93855,-2.75026,5197.487,64878.4
335,16.75,-2.79186,-0.2494966,0.005945712,0,0,0,0,0,2.791727,12.32006,0.2494966,0,13.14771,-2.79186,5213.196,64239
340,17.0,-2.833326,-0.2516945,0.005998089,0,0,0,0,0,2.833193,12.50306,0.2516945,0,13.35663,-2.833326,5248.144,63856.5
345,17.25,-2.87506,-0.2532419,0.006034965,0,0,0,0,0,2.874926,12.68723,0.2532419,0,13.56735,-2.87506,5269.295,63316.4
350,17.5,-2.916926,-0.2554494,0.006087572,0,0,0,0,0,2.916793,12.87199,0.2554494,0,13.77918,-2.916926,5303.98,62951.6
355,17.75,-2.95826,-0.2569087,0.006122349,0,0,0,0,0,2.958126,13.0544,0.2569087,0,13.98875,-2.95826,5323.113,62426.6
360,18.0,-3.000126,-0.258566,0.006161842,0,0,0,0,0,2.999993,13.23916,0.258566,0,14.20148,-3.000126,5346.066,61952.4
365,18.25,-3.041993,-0.2603274,0.006203818,0,0,0,0,0,3.041859,13.42392,0.2603274,0,14.41466,-3.041993,5371.023,61516
370,18.5,-3.083459,-0.2617325,0.006237303,0,0,0,0,0,3.083326,13.60691,0.2617325,0,14.62625,-3.083459,5388.599,61016.2
375,18.75,-3.125192,-0.2634732,0.006278785,0,0,0,0,0,3.125059,13.79108,0.2634732,0,14.83965,-3.125192,5412.873,60601.8
380,19.0,-3.166792,-0.2647933,0.006310244,0,0,0,0,0,3.166659,13.97466,0.2647932,0,15.05283,-3.166792,5428.408,60105.3
385,19.25,-3.208659,-0.2665319,0.006351678,0,0,0,0,0,3.208526,14.15942,0.2665319,0,15.26784,-3.208659,5452.317,59710.5
390,19.5,-3.250125,-0.2678456,0.006382985,0,0,0,0,0,3.249992,14.34242,0.2678457,0,15.48125,-3.250125,5467.51,59239.3
395,19.75,-3.291725,-0.2690733,0.00641224,0,0,0,0,0,3.291592,14.526,0.2690733,0,15.6958,-3.291725,5480.798,58758.7
400,20.0,-3.333858,-0.2704534,0.00644513,0,0,0,0,0,3.333725,14.71194,0.2704534,0,15.91357,-3.333858,5496.926,58313.6
405,20.25,-3.375059,-0.2714206,0.00646818,0,0,0,0,0,3.374925,14.89376,0.2714206,0,16.12698,-3.375059,5504.825,57807.7
410,20.5,-3.416792,-0.2728018,0.006501093,0,0,0,0,0,3.416658,15.07793,0.2728018,0,16.34361,-3.416792,5520.863,57392.2
415,20.75,-3.458658,-0.2747808,0.006548255,0,0,0,0,0,3.458525,15.26269,0.2747808,0,16.56141,-3.458658,5548.815,57108.8
420,21.0,-3.499991,-0.2750664,0.006555061,0,0,0,0,0,3.499858,15.44509,0.2750664,0,16.77691,-3.499991,5542.626,56493
425,21.25,-3.541725,-0.2766008,0.006591628,0,0,0,0,0,3.541591,15.62926,0.2766008,0,16.99496,-3.541725,5561.405,56138.7
430,21.5,-3.583591,-0.2777174,0.006618238,0,0,0,0,0,3.583458,15.81402,0.2777174,0,17.21418,-3.583591,5571.628,55706.8
435,21.75,-3.625191,-0.2791731,0.006652928,0,0,0,0,0,3.625058,15.99761,0.2791731,0,17.43249,-3.625191,5588.619,55356.2
440,22.0,-3.666658,-0.2797103,0.00666573,0,0,0,0,0,3.666524,16.1806,0.2797103,0,17.65057,-3.666658,5587.175,54835.4
445,22.25,-3.708658,-0.2811023,0.006698901,0,0,0,0,0,3.708524,16.36595,0.2811023,0,17.87194,-3.708658,5602.562,54484.2
450,22.5,-3.750257,-0.2822516,0.006726291,0,0,0,0,0,3.750124,16.54953,0.2822516,0,18.09169,-3.750257,5613.121,54100.1
455,22.75,-3.791724,-0.2831991,0.00674887,0,0,0,0,0,3.79159,16.73253,0.2831991,0,18.31122,-3.791724,5619.614,53688.1
460,23.0,-3.833724,-0.2841439,0.006771385,0,0,0,0,0,3.833591,16.91788,0.2841439,0,18.53406,-3.833724,5625.811,53277
465,23.25,-3.875057,-0.2853948,0.006801195,0,0,0,0,0,3.874924,17.10028,0.2853948,0,18.75385,-3.875057,5638.172,52940.8
470,23.5,-3.916791,-0.2857394,0.006809409,0,0,0,0,0,3.916657,17.28445,0.2857395,0,18.97626,-3.916791,5632.44,52439.9
475,23.75,-3.958524,-0.286704,0.006832396,0,0,0,0,0,3.95839,17.46862,0.286704,0,19.19916,-3.958524,5638.871,52062.2
480,24.0,-4.000124,-0.2875546,0.006852665,0,0,0,0,0,3.99999,17.65221,0.2875546,0,19.42185,-4.000124,5643.019,51673.6
485,24.25,-4.041857,-0.2884203,0.006873296,0,0,0,0,0,4.041724,17.83638,0.2884203,0,19.64576,-4.041857,5647.348,51294
490,24.5,-4.083323,-0.288607,0.006877746,0,0,0,0,0,4.08319,18.01937,0.288607,0,19.86872,-4.083323,5638.419,50805.9
495,24.75,-4.12519,-0.2892127,0.00689218,0,0,0,0,0,4.125057,18.20413,0.2892127,0,20.09435,-4.12519,5637.518,50395.8
500,25.0,-4.166923,-0.2897401,0.006904747,0,0,0,0,0,4.16679,18.38831,0.2897401,0,20.31976,-4.166923,5635.081,49982.1
505,25.25,-4.208256,-0.2895839,0.006901026,0,0,0,0,0,4.208123,18.57071,0.2895839,0,20.54352,-4.208256,5619.456,49464.5
510,25.5,-4.25039,-0.2905459,0.006923952,0,0,0,0,0,4.250257,18.75665,0.2905459,0,20.77212,-4.25039,5625.25,49136.8
515,25.75,-4.291856,-0.290344,0.006919139,0,0,0,0,0,4.291723,18.93964,0.290344,0,20.99762,-4.291856,5608.678,48628.2
520,26.0,-4.333456,-0.291075,0.006936559,0,0,0,0,0,4.333323,19.12322,0.291075,0,21.22435,-4.333456,5610.065,48282.7
525,26.25,-4.375323,-0.2911205,0.006937644,0,0,0,0,0,4.375189,19.30799,0.2911205,0,21.45306,-4.375323,5598.125,47828.1
530,26.5,-4.416789,-0.2912043,0.00693964,0,0,0,0,0,4.416656,19.49098,0.2912043,0,21.6801,-4.416789,5587.036,47392.7
535,26.75,-4.458389,-0.2915212,0.006947193,0,0,0,0,0,4.458256,19.67456,0.2915212,0,21.90838,-4.458389,5580.363,47001.6
540,27.0,-4.500256,-0.2917371,0.006952337,0,0,0,0,0,4.500123,19.85932,0.2917371,0,22.13866,-4.500256,5571.65,46598.8
545,27.25,-4.541856,-0.2920261,0.006959226,0,0,0,0,0,4.541723,20.04291,0.2920261,0,22.368,-4.541856,5564.395,46217.7
550,27.5,-4.583322,-0.2920564,0.006959948,0,0,0,0,0,4.583189,20.2259,0.2920564,0,22.59713,-4.583322,5552.236,45804.3
555,27.75,-4.625055,-0.2927105,0.006975535,0,0,0,0,0,4.624922,20.41007,0.2927105,0,22.82826,-4.625055,5551.823,45492.6
560,28.0,-4.667055,-0.2920043,0.006958707,0,0,0,0,0,4.666922,20.59542,0.2920043,0,23.06141,-4.667055,5525.532,44974.5
565,28.25,-4.708255,-0.2922039,0.006963463,0,0,0,0,0,4.708122,20.77724,0.2922039,0,23.29065,-4.708255,5516.648,44611.4
570,28.5,-4.750255,-0.2918955,0.006956114,0,0,0,0,0,4.750122,20.96259,0.2918955,0,23.52488,-4.750255,5497.932,44170.3
575,28.75,-4.791855,-0.2916921,0.006951265,0,0,0,0,0,4.791722,21.14617,0.2916921,0,23.75743,-4.791855,5481.339,43756.3
580,29.0,-4.833455,-0.2908579,0.006931385,0,0,0,0,0,4.833322,21.32975,0.2908579,0,23.99051,-4.833455,5452.938,43255.6
585,29.25,-4.875188,-0.2904232,0.006921026,0,0,0,0,0,4.875055,21.51392,0.2904232,0,24.22489,-4.875188,5432.042,42821.2
590,29.5,-4.916788,-0.2892894,0.006894007,0,0,0,0,0,4.916655,21.69751,0.2892894,0,24.45907,-4.916788,5398.179,42293.2
595,29.75,-4.958521,-0.2895075,0.006899205,0,0,0,0,0,4.958388,21.88168,0.2895075,0,24.69455,-4.958521,5389.543,41968.8
600,30.0,-4.999988,-0.2897412,0.006904773,0,0,0,0,0,4.999854,22.06467,0.2897412,0,24.92908,-4.999988,5381.258,41654.3
605,30.25,-5.041721,-0.2891625,0.006890983,0,0,0,0,0,5.041588,22.24884,0.2891625,0,25.16568,-5.041721,5357.819,41227
610,30.5,-5.083587,-0.2893857,0.006896302,0,0,0,0,0,5.083454,22.4336,0.2893857,0,25.40358,-5.083587,5349.213,40919
615,30.75,-5.124921,-0.289066,0.006888684,0,0,0,0,0,5.124788,22.61601,0.289066,0,25.63903,-5.124921,5330.739,40544.2
620,31.0,-5.166921,-0.289353,0.006895522,0,0,0,0,0,5.166788,22.80136,0.289353,0,25.87883,-5.166921,5323.249,40254.5
625,31.25,-5.208654,-0.2887758,0.006881768,0,0,0,0,0,5.20852,22.98553,0.2887758,0,26.11768,-5.208654,5299.958,39852.3
630,31.5,-5.250121,-0.2886934,0.006879805,0,0,0,0,0,5.249987,23.16852,0.2886934,0,26.35557,-5.250121,5285.856,39526.3
635,31.75,-5.291854,-0.288599,0.006877554,0,0,0,0,0,5.291721,23.3527,0.288599,0,26.59558,-5.291854,5271.46,39201.7
640,32.0,-5.333587,-0.2881627,0.006867156,0,0,0,0,0,5.333454,23.53687,0.2881627,0,26.83615,-5.333587,5250.843,38836.2
645,32.25,-5.37532,-0.2884911,0.006874984,0,0,0,0,0,5.375187,23.72104,0.2884911,0,27.0773,-5.37532,5244.166,38578.6
650,32.5,-5.416787,-0.288213,0.006868355,0,0,0,0,0,5.416654,23.90403,0.288213,0,27.31749,-5.416787,5226.541,38246.3
655,32.75,-5.45852,-0.2883569,0.006871784,0,0,0,0,0,5.458387,24.0882,0.2883569,0,27.55981,-5.45852,5216.495,37972.9
660,33.0,-5.50012,-0.2879651,0.006862448,0,0,0,0,0,5.499987,24.27179,0.2879651,0,27.80194,-5.50012,5196.809,37634.4
665,33.25,-5.54172,-0.2873539,0.006847884,0,0,0,0,0,5.541587,24.45537,0.2873539,0,28.04466,-5.54172,5173.208,37272.6
670,33.5,-5.583587,-0.2870883,0.006841553,0,0,0,0,0,5.583454,24.64013,0.2870883,0,28.28953,-5.583587,5155.786,36959
675,33.75,-5.62492,-0.2867645,0.006833836,0,0,0,0,0,5.624786,24.82253,0.2867645,0,28.53187,-5.62492,5137.505,36646
680,34.0,-5.666786,-0.2866945,0.006832169,0,0,0,0,0,5.666653,25.0073,0.2866945,0,28.77794,-5.666786,5123.628,36366.4
685,34.25,-5.708653,-0.2871414,0.006842819,0,0,0,0,0,5.708519,25.19205,0.2871414,0,29.02461,-5.708653,5118.972,36155.9
690,34.5,-5.749986,-0.2866797,0.006831815,0,0,0,0,0,5.749853,25.37446,0.2866797,0,29.26874,-5.749986,5098.279,35838.3
695,34.75,-5.791853,-0.2871808,0.006843757,0,0,0,0,0,5.791719,25.55922,0.2871808,0,29.51663,-5.791853,5094.546,35641.4
700,35.0,-5.833453,-0.2870791,0.006841335,0,0,0,0,0,5.833319,25.7428,0.2870792,0,29.76355,-5.833453,5080.184,35374.7
705,35.25,-5.875319,-0.2876842,0.006855754,0,0,0,0,0,5.875185,25.92756,0.2876842,0,30.01267,-5.875319,5078.224,35196.7
710,35.5,-5.916785,-0.2878396,0.006859458,0,0,0,0,0,5.916652,26.11056,0.2878396,0,30.26002,-5.916785,5068.415,34968.9
715,35.75,-5.958385,-0.287933,0.006861683,0,0,0,0,0,5.958252,26.29414,0.287933,0,30.50879,-5.958385,5057.463,34736
720,36.0,-6.000519,-0.2884207,0.006873306,0,0,0,0,0,6.000386,26.48008,0.2884207,0,30.76138,-6.000519,5053.249,34550.5
725,36.25,-6.041585,-0.2875827,0.006853336,0,0,0,0,0,6.041452,26.66131,0.2875827,0,31.00818,-6.041585,5026.147,34216
730,36.5,-6.083318,-0.2889021,0.006884778,0,0,0,0,0,6.083185,26.84548,0.2889021,0,31.25962,-6.083318,5036.526,34137.1
735,36.75,-6.125318,-0.2884085,0.006873015,0,0,0,0,0,6.125185,27.03082,0.2884085,0,31.51331,-6.125318,5015.183,33845.1
740,37.0,-6.166652,-0.2891059,0.006889634,0,0,0,0,0,6.166518,27.21323,0.2891059,0,31.7636,-6.166652,5014.742,33699.6
745,37.25,-6.208385,-0.2896834,0.006903396,0,0,0,0,0,6.208251,27.3974,0.2896833,0,32.01695,-6.208385,5012.044,33539.9
750,37.5,-6.250252,-0.289905,0.006908677,0,0,0,0,0,6.250118,27.58216,0.289905,0,32.27175,-6.250252,5003.114,33340.7
755,37.75,-6.291851,-0.2904503,0.006921673,0,0,0,0,0,6.291718,27.76575,0.2904503,0,32.52558,-6.291851,4999.819,33182.6
760,38.0,-6.333318,-0.2912198,0.00694001,0,0,0,0,0,6.333185,27.94874,0.2912198,0,32.77924,-6.333318,5000.364,33052.6
765,38.25,-6.375184,-0.2919868,0.006958288,0,0,0,0,0,6.375051,28.1335,0.2919868,0,33.036,-6.375184,5000.678,32922
770,38.5,-6.416918,-0.2923545,0.006967052,0,0,0,0,0,6.416785,28.31767,0.2923545,0,33.29259,-6.416918,4994.145,32749.1
775,38.75,-6.458384,-0.2927499,0.006976474,0,0,0,0,0,6.458251,28.50067,0.2927499,0,33.54821,-6.458384,4988.132,32582.9
780,39.0,-6.500251,-0.2933085,0.006989786,0,0,0,0,0,6.500117,28.68542,0.2933085,0,33.80695,-6.500251,4984.737,32434.8
785,39.25,-6.541717,-0.2935968,0.006996655,0,0,0,0,0,6.541584,28.86842,0.2935967,0,34.06388,-6.541717,4976.831,32260.8
790,39.5,-6.583317,-0.2939011,0.007003908,0,0,0,0,0,6.583184,29.052,0.2939011,0,34.3223,-6.583317,4969.133,32090.2
795,39.75,-6.625184,-0.2944991,0.00701816,0,0,0,0,0,6.625051,29.23676,0.2944992,0,34.58306,-6.625184,4966.277,31952.3
800,40.0,-6.666784,-0.2945814,0.007020119,0,0,0,0,0,6.66665,29.42035,0.2945814,0,34.84282,-6.666784,4954.776,31761.8
805,40.25,-6.708517,-0.2949542,0.007029005,0,0,0,0,0,6.708384,29.60452,0.2949542,0,35.10411,-6.708517,4948.102,31604.1
810,40.5,-6.750117,-0.2955209,0.00704251,0,0,0,0,0,6.749984,29.7881,0.2955209,0,35.36524,-6.750117,4944.68,31469.7
815,40.75,-6.79185,-0.2959094,0.007051767,0,0,0,0,0,6.791717,29.97227,0.2959094,0,35.62789,-6.79185,4938.192,31317.5
820,41.0,-6.833583,-0.2963922,0.007063273,0,0,0,0,0,6.83345,30.15644,0.2963922,0,35.89123,-6.833583,4933.241,31177
825,41.25,-6.874917,-0.2963793,0.007062964,0,0,0,0,0,6.874784,30.33885,0.2963792,0,36.15274,-6.874917,4920.142,30988.2
830,41.5,-6.91705,-0.2964072,0.00706363,0,0,0,0,0,6.916916,30.52479,0.2964072,0,36.42001,-6.91705,4907.472,30802.3
835,41.75,-6.958383,-0.2960976,0.007056252,0,0,0,0,0,6.95825,30.70719,0.2960976,0,36.68291,-6.958383,4889.475,30587.4
840,42.0,-7.000116,-0.2960295,0.00705463,0,0,0,0,0,6.999983,30.89136,0.2960295,0,36.94905,-7.000116,4875.359,30398
845,42.25,-7.041983,-0.296257,0.007060051,0,0,0,0,0,7.041849,31.07612,0.296257,0,37.21675,-7.041983,4866.061,30240.5
850,42.5,-7.08345,-0.295837,0.007050042,0,0,0,0,0,7.083316,31.25912,0.295837,0,37.48261,-7.08345,4846.261,30020.9
855,42.75,-7.125049,-0.2958773,0.007051003,0,0,0,0,0,7.124916,31.4427,0.2958773,0,37.75003,-7.125049,4833.977,29849.6
860,43.0,-7.166916,-0.2957904,0.007048931,0,0,0,0,0,7.166782,31.62746,0.2957904,0,38.01989,-7.166916,4819.533,29666.6
865,43.25,-7.208516,-0.2955438,0.007043056,0,0,0,0,0,7.208383,31.81104,0.2955438,0,38.28876,-7.208516,4802.586,29470.8
870,43.5,-7.249982,-0.2957701,0.007048448,0,0,0,0,0,7.249849,31.99404,0.2957701,0,38.55748,-7.249982,4793.364,29324.6
875,43.75,-7.291849,-0.2956218,0.007044912,0,0,0,0,0,7.291716,32.1788,0.2956218,0,38.82953,-7.291849,4777.944,29141.6
880,44.0,-7.333715,-0.2957316,0.00704753,0,0,0,0,0,7.333582,32.36356,0.2957316,0,39.10232,-7.333715,4766.699,28986
885,44.25,-7.374915,-0.2956135,0.007044715,0,0,0,0,0,7.374782,32.54538,0.2956135,0,39.3715,-7.374915,4751.986,28812.6
890,44.5,-7.416915,-0.2956299,0.007045106,0,0,0,0,0,7.416782,32.73072,0.2956299,0,39.64666,-7.416915,4739.192,28651
895,44.75,-7.458515,-0.2957705,0.007048458,0,0,0,0,0,7.458382,32.91431,0.2957706,0,39.91994,-7.458515,4728.507,28504.8
900,45.0,-7.500115,-0.2958486,0.00705032,0,0,0,0,0,7.499982,33.09789,0.2958486,0,40.19397,-7.500115,4716.813,28354.1
905,45.25,-7.541982,-0.2960636,0.007055443,0,0,0,0,0,7.541848,33.28265,0.2960636,0,40.47051,-7.541982,4707.204,28217.2
910,45.5,-7.583448,-0.2959961,0.007053834,0,0,0,0,0,7.583315,33.46564,0.2959961,0,40.74517,-7.583448,4693.223,28056.5
915,45.75,-7.625181,-0.2967092,0.007070826,0,0,0,0,0,7.625048,33.64981,0.2967092,0,41.02236,-7.625181,4691.506,27970.2
920,46.0,-7.666781,-0.2972643,0.007084056,0,0,0,0,0,7.666648,33.8334,0.2972643,0,41.29943,-7.666781,4687.279,27870.5
925,46.25,-7.708248,-0.2981094,0.007104196,0,0,0,0,0,7.708115,34.01639,0.2981094,0,41.57638,-7.708248,4687.604,27799.4
930,46.5,-7.750381,-0.2988957,0.007122934,0,0,0,0,0,7.750248,34.20233,0.2988957,0,41.85858,-7.750381,4686.724,27721.2
935,46.75,-7.791581,-0.2992129,0.007130493,0,0,0,0,0,7.791448,34.38415,0.2992129,0,42.13529,-7.791581,4678.734,27603.8
940,47.0,-7.833715,-0.2997499,0.007143289,0,0,0,0,0,7.83358,34.57008,0.2997499,0,42.41906,-7.833715,4673.848,27504.6
945,47.25,-7.875314,-0.3006733,0.007165296,0,0,0,0,0,7.875181,34.75367,0.3006733,0,42.70003,-7.875314,4675.093,27443.6
950,47.5,-7.916648,-0.3015628,0.007186492,0,0,0,0,0,7.916514,34.93607,0.3015628,0,42.97999,-7.916648,4675.814,27381.1
955,47.75,-7.958514,-0.3029001,0.007218361,0,0,0,0,0,7.958381,35.12083,0.3029001,0,43.26436,-7.958514,4683.213,27357.9
960,48.0,-8.00038,-0.3039845,0.007244204,0,0,0,0,0,8.000247,35.30559,0.3039845,0,43.54954,-8.00038,4686.595,27312.1
965,48.25,-8.041847,-0.3048158,0.007264015,0,0,0,0,0,8.041715,35.48859,0.3048158,0,43.83281,-8.041847,4686.118,27245.6
970,48.5,-8.083447,-0.3057725,0.007286814,0,0,0,0,0,8.083314,35.67217,0.3057725,0,44.11778,-8.083447,4687.449,27190.4
975,48.75,-8.12518,-0.3065176,0.00730457,0,0,0,0,0,8.125047,35.85634,0.3065176,0,44.4045,-8.12518,4685.418,27116.7
980,49.0,-8.166781,-0.3073802,0.007325127,0,0,0,0,0,8.166648,36.03993,0.3073803,0,44.69112,-8.166781,4685.157,27054.5
985,49.25,-8.20838,-0.3084696,0.007351087,0,0,0,0,0,8.208247,36.22351,0.3084696,0,44.97855,-8.20838,4688.265,27012.8
990,49.5,-8.250247,-0.3091121,0.007366399,0,0,0,0,0,8.250113,36.40827,0.3091121,0,45.26867,-8.250247,4684.421,26931.7
995,49.75,-8.291713,-0.3102633,0.007393832,0,0,0,0,0,8.291579,36.59126,0.3102633,0,45.55684,-8.291713,4688.336,26896.8
1000,50.0,-8.333446,-0.310953,0.00741027,0,0,0,0,0,8.333313,36.77543,0.3109531,0,45.84773,-8.333446,4685.111,26821.6
1005,50.25,-8.37518,-0.3124034,0.007444833,0,0,0,0,0,8.375047,36.95961,0.3124034,0,46.13945,-8.37518,4693.252,26812.4
1010,50.5,-8.416779,-0.3137425,0.007476744,0,0,0,0,0,8.416645,37.14318,0.3137425,0,46.43108,-8.416779,4699.643,26794.3
1015,50.75,-8.458513,-0.3145994,0.007497166,0,0,0,0,0,8.45838,37.32736,0.3145994,0,46.72452,-8.458513,4698.672,26734.9
1020,51.0,-8.499979,-0.3155422,0.007519633,0,0,0,0,0,8.499846,37.51035,0.3155422,0,47.01693,-8.499979,4698.992,26684.2
1025,51.25,-8.541979,-0.3167979,0.007549557,0,0,0,0,0,8.541845,37.6957,0.3167979,0,47.31397,-8.541979,4703.699,26658.6
1030,51.5,-8.583446,-0.3178341,0.007574252,0,0,0,0,0,8.583313,37.8787,0.3178341,0,47.60812,-8.583446,4705.224,26616.6
1035,51.75,-8.624912,-0.319229,0.007607494,0,0,0,0,0,8.624779,38.06169,0.319229,0,47.90313,-8.624912,4711.953,26604.9
1040,52.0,-8.667179,-0.3208294,0.007645632,0,0,0,0,0,8.667047,38.24822,0.3208294,0,48.20474,-8.667179,4721.314,26607.9
1045,52.25,-8.708245,-0.3221363,0.007676776,0,0,0,0,0,8.708112,38.42944,0.3221363,0,48.49864,-8.708245,4726.634,26590.3
1050,52.5,-8.750112,-0.3236528,0.007712916,0,0,0,0,0,8.749979,38.6142,0.3236528,0,48.79917,-8.750112,4734.635,26587.6
1055,52.75,-8.791978,-0.3253704,0.007753849,0,0,0,0,0,8.791844,38.79896,0.3253704,0,49.1006,-8.791978,4745.436,26601.5
1060,53.0,-8.833311,-0.3266168,0.007783551,0,0,0,0,0,8.833179,38.98137,0.3266169,0,49.39909,-8.833311,4749.416,26578.4
1065,53.25,-8.875045,-0.328053,0.007817777,0,0,0,0,0,8.874912,39.16554,0.3280531,0,49.70138,-8.875045,4755.902,26569.7
1070,53.5,-8.916912,-0.3298243,0.007859988,0,0,0,0,0,8.916778,39.3503,0.3298243,0,50.00555,-8.916912,4767.059,26587.8
1075,53.75,-8.958512,-0.331115,0.007890746,0,0,0,0,0,8.958379,39.53389,0.331115,0,50.30871,-8.958512,4771.228,26567.9
1080,54.0,-8.999978,-0.3328309,0.007931639,0,0,0,0,0,8.999845,39.71688,0.3328309,0,50.61181,-8.999978,4781.439,26582.5
1085,54.25,-9.041845,-0.3340253,0.007960101,0,0,0,0,0,9.041711,39.90164,0.3340253,0,50.91876,-9.041845,4783.89,26554.4
1090,54.5,-9.083444,-0.3359476,0.008005911,0,0,0,0,0,9.083311,40.08522,0.3359476,0,51.2247,-9.083444,4796.724,26584.9
1095,54.75,-9.125045,-0.3370781,0.008032852,0,0,0,0,0,9.124911,40.26881,0.3370781,0,51.53158,-9.125045,4798.118,26552.7
1100,55.0,-9.167044,-0.3388502,0.008075084,0,0,0,0,0,9.166911,40.45415,0.3388503,0,51.84236,-9.167044,4808.377,26570
1105,55.25,-9.208377,-0.3403181,0.008110065,0,0,0,0,0,9.208244,40.63656,0.3403181,0,52.14916,-9.208377,4814.413,26565.3
1110,55.5,-9.250111,-0.3420851,0.008152173,0,0,0,0,0,9.249978,40.82073,0.3420851,0,52.45989,-9.250111,4824.396,26582.8
1115,55.75,-9.291978,-0.3437821,0.008192613,0,0,0,0,0,9.291843,41.00549,0.3437821,0,52.77258,-9.291978,4833.192,26594.3
1120,56.0,-9.333444,-0.3455853,0.008235587,0,0,0,0,0,9.333311,41.18848,0.3455853,0,53.08325,-9.333444,4843.473,26615
1125,56.25,-9.375177,-0.3466332,0.008260558,0,0,0,0,0,9.375044,41.37266,0.3466332,0,53.3969,-9.375177,4842.946,26576.9
1130,56.5,-9.416777,-0.3486128,0.008307734,0,0,0,0,0,9.416643,41.55624,0.3486128,0,53.71052,-9.416777,4855.352,26610.6
1135,56.75,-9.45851,-0.3504162,0.008350709,0,0,0,0,0,9.458377,41.74041,0.3504162,0,54.02615,-9.45851,4865.089,26630.2
1140,57.0,-9.500244,-0.3518862,0.008385742,0,0,0,0,0,9.500111,41.92458,0.3518862,0,54.34277,-9.500244,4870.055,26624.5
1145,57.25,-9.54171,-0.3538688,0.008432989,0,0,0,0,0,9.541576,42.10757,0.3538688,0,54.65837,-9.54171,4882.062,26658.1
1150,57.5,-9.583844,-0.3553649,0.00846864,0,0,0,0,0,9.583711,42.29351,0.3553649,0,54.98006,-9.583844,4886.955,26653.1
1155,57.75,-9.625177,-0.3568437,0.008503883,0,0,0,0,0,9.625044,42.47592,0.3568437,0,55.29666,-9.625177,4891.78,26649.1
1160,58.0,-9.666776,-0.3579825,0.008531021,0,0,0,0,0,9.666643,42.6595,0.3579825,0,55.6163,-9.666776,4891.73,26619.1
1165,58.25,-9.708643,-0.3591775,0.008559498,0,0,0,0,0,9.708509,42.84426,0.3591774,0,55.93904,-9.708643,4892.244,26592.8
1170,58.5,-9.749976,-0.3598097,0.008574564,0,0,0,0,0,9.749842,43.02666,0.3598097,0,56.25868,-9.749976,4885.215,26526.7
1175,58.75,-9.791709,-0.360616,0.008593779,0,0,0,0,0,9.791576,43.21084,0.360616,0,56.58247,-9.791709,4880.335,26472.8
1180,59.0,-9.833443,-0.3616891,0.008619352,0,0,0,0,0,9.83331,43.39501,0.3616891,0,56.90731,-9.833443,4878.983,26438.9
1185,59.25,-9.87531,-0.3626813,0.008642998,0,0,0,0,0,9.875176,43.57977,0.3626813,0,57.23425,-9.87531,4876.399,26399
1190,59.5,-9.916643,-0.3638349,0.008670489,0,0,0,0,0,9.91651,43.76218,0.3638349,0,57.55807,-9.916643,4876.094,26372.6
1195,59.75,-9.958509,-0.3647337,0.008691907,0,0,0,0,0,9.958376,43.94694,0.3647337,0,57.88714,-9.958509,4872.08,26326.6
1200,60.0,-10.00038,-0.3658689,0.008718959,0,0,0,0,0,10.00024,44.1317,0.3658689,0,58.2173,-10.00038,4871.135,26298
1205,60.25,-10.04171,-0.3668147,0.008741499,0,0,0,0,0,10.04158,44.3141,0.3668147,0,58.54433,-10.04171,4867.782,26257.4
1210,60.5,-10.08371,-0.3684107,0.008779534,0,0,0,0,0,10.08358,44.49945,0.3684107,0,58.87773,-10.08371,4872.69,26261.8
1215,60.75,-10.12518,-0.3700587,0.008818806,0,0,0,0,0,10.12504,44.68245,0.3700587,0,59.20799,-10.12518,4878.348,26271.3
1220,61.0,-10.16678,-0.3716456,0.008856624,0,0,0,0,0,10.16664,44.86603,0.3716456,0,59.54041,-10.16678,4883.009,26276
1225,61.25,-10.20851,-0.3732408,0.008894639,0,0,0,0,0,10.20838,45.0502,0.3732408,0,59.87502,-10.20851,4887.586,26280.9
1230,61.5,-10.25011,-0.3751284,0.008939622,0,0,0,0,0,10.24998,45.23378,0.3751284,0,60.20967,-10.25011,4895.893,26306.6
1235,61.75,-10.29197,-0.3762929,0.008967373,0,0,0,0,0,10.29184,45.41854,0.3762929,0,60.5476,-10.29197,4894.522,26280.9
1240,62.0,-10.33331,-0.3780059,0.009008195,0,0,0,0,0,10.33317,45.60095,0.3780059,0,60.88235,-10.33331,4900.373,26294.9
1245,62.25,-10.37491,-0.3798604,0.009052389,0,0,0,0,0,10.37477,45.78453,0.3798604,0,61.22039,-10.37491,4907.795,26318
1250,62.5,-10.41691,-0.3810249,0.00908014,0,0,0,0,0,10.41677,45.96988,0.3810249,0,61.56285,-10.41691,4906.011,26292.2
1255,62.75,-10.45824,-0.3825737,0.00911705,0,0,0,0,0,10.45811,46.15229,0.3825737,0,61.90102,-10.45824,4909.323,26294.8
1260,63.0,-10.50024,-0.3841466,0.009154534,0,0,0,0,0,10.50011,46.33764,0.3841466,0,62.24583,-10.50024,4912.539,26297.3
1265,63.25,-10.54197,-0.3855389,0.009187714,0,0,0,0,0,10.54184,46.5218,0.3855389,0,62.58962,-10.54197,4913.423,26288.1
1270,63.5,-10.58317,-0.3867706,0.009217067,0,0,0,0,0,10.58304,46.70362,0.3867706,0,62.93019,-10.58317,4912.362,26269.4
1275,63.75,-10.62531,-0.3891162,0.009272964,0,0,0,0,0,10.62517,46.88956,0.3891162,0,63.27967,-10.62531,4924.912,26323.9
1280,64.0,-10.66691,-0.3911817,0.009322185,0,0,0,0,0,10.66677,47.07314,0.3911817,0,63.62593,-10.66691,4933.939,26360.5
1285,64.25,-10.70851,-0.3918327,0.009337701,0,0,0,0,0,10.70837,47.25673,0.3918327,0,63.97339,-10.70851,4925.009,26301.7
1290,64.5,-10.75011,-0.3943808,0.009398423,0,0,0,0,0,10.74997,47.44031,0.3943808,0,64.32206,-10.75011,4939.783,26370.3
1295,64.75,-10.79184,-0.3956706,0.009429159,0,0,0,0,0,10.79171,47.62448,0.3956706,0,64.67309,-10.79184,4938.571,26354.3
1300,65.0,-10.83331,-0.3982395,0.009490378,0,0,0,0,0,10.83317,47.80748,0.3982395,0,65.02309,-10.83331,4953.268,26423.8
1305,65.25,-10.87504,-0.400077,0.009534168,0,0,0,0,0,10.87491,47.99165,0.400077,0,65.37658,-10.87504,4958.564,26443.9
1310,65.5,-10.91691,-0.402265,0.009586311,0,0,0,0,0,10.91677,48.1764,0.402265,0,65.73246,-10.91691,4967.971,26486.5
1315,65.75,-10.95824,-0.4043092,0.009635024,0,0,0,0,0,10.95811,48.35881,0.4043092,0,66.08506,-10.95824,4975.641,26520.7
1320,66.0,-11.00011,-0.4060392,0.009676253,0,0,0,0,0,10.99997,48.54357,0.4060392,0,66.44347,-11.00011,4979.055,26532.8
1325,66.25,-11.04197,-0.4082163,0.009728133,0,0,0,0,0,11.04184,48.72833,0.4082162,0,66.80318,-11.04197,4987.776,26573.9
1330,66.5,-11.08331,-0.4102137,0.009775735,0,0,0,0,0,11.08317,48.91074,0.4102137,0,67.15959,-11.08331,4994.35,26604.4
1335,66.75,-11.12517,-0.4122269,0.009823711,0,0,0,0,0,11.12504,49.09549,0.4122269,0,67.52187,-11.12517,5000.712,26634.3
1340,67.0,-11.16677,-0.4143822,0.009875072,0,0,0,0,0,11.16664,49.27908,0.4143822,0,67.88317,-11.16677,5008.727,26673.9
1345,67.25,-11.20877,-0.4166015,0.00992796,0,0,0,0,0,11.20864,49.46443,0.4166015,0,68.24927,-11.20877,5017.151,26716.2
1350,67.5,-11.24997,-0.4184107,0.009971075,0,0,0,0,0,11.24984,49.64624,0.4184107,0,68.6097,-11.24997,5020.81,26734
1355,67.75,-11.29171,-0.4205994,0.01002323,0,0,0,0,0,11.29157,49.83042,0.4205994,0,68.97613,-11.29171,5028.615,26774.5
1360,68.0,-11.33384,-0.4227468,0.01007441,0,0,0,0,0,11.33371,50.01635,0.4227468,0,69.34743,-11.33384,5035.556,26811.2
1365,68.25,-11.37504,-0.4248761,0.01012515,0,0,0,0,0,11.37491,50.19817,0.4248761,0,69.71185,-11.37504,5042.51,26848.6
1370,68.5,-11.41677,-0.4268687,0.01017264,0,0,0,0,0,11.41664,50.38234,0.4268687,0,70.08235,-11.41677,5047.424,26875.9
1375,68.75,-11.45864,-0.4293664,0.01023216,0,0,0,0,0,11.45851,50.5671,0.4293664,0,70.45541,-11.45864,5058.053,26934.4
1380,69.0,-11.49984,-0.4311518,0.01027471,0,0,0,0,0,11.49971,50.74892,0.4311518,0,70.82389,-11.49984,5060.404,26949.5
1385,69.25,-11.54171,-0.4334502,0.01032948,0,0,0,0,0,11.54157,50.93368,0.4334502,0,71.19974,-11.54171,5068.295,26994.9
1390,69.5,-11.58371,-0.4359537,0.01038914,0,0,0,0,0,11.58357,51.11903,0.4359537,0,71.5782,-11.58371,5078.312,27052.4
1395,69.75,-11.62517,-0.4379066,0.01043568,0,0,0,0,0,11.62504,51.30202,0.4379066,0,71.95326,-11.62517,5081.965,27076.6
1400,70.0,-11.66677,-0.4406283,0.01050054,0,0,0,0,0,11.66664,51.48561,0.4406283,0,72.33097,-11.66677,5094.273,27147.8
1405,70.25,-11.70864,-0.4429803,0.01055659,0,0,0,0,0,11.7085,51.67036,0.4429803,0,72.71252,-11.70864,5101.961,27195.1
1410,70.5,-11.75024,-0.4454157,0.01061463,0,0,0,0,0,11.7501,51.85395,0.4454157,0,73.0931,-11.75024,5110.524,27247.8
1415,70.75,-11.79184,-0.4481343,0.01067941,0,0,0,0,0,11.79171,52.03753,0.4481343,0,73.47514,-11.79184,5122.11,27317.4
1420,71.0,-11.83357,-0.4507861,0.01074261,0,0,0,0,0,11.83344,52.2217,0.4507861,0,73.85987,-11.83357,5132.636,27382.1
1425,71.25,-11.87517,-0.4538841,0.01081644,0,0,0,0,0,11.87504,52.40528,0.4538841,0,74.24484,-11.87517,5148.052,27473.7
1430,71.5,-11.91664,-0.4568875,0.01088801,0,0,0,0,0,11.9165,52.58828,0.4568875,0,74.63007,-11.91664,5162.192,27559.3
1435,71.75,-11.9585,-0.4599114,0.01096007,0,0,0,0,0,11.95837,52.77304,0.4599114,0,75.02053,-11.9585,5176.108,27644.5
1440,72.0,-12.0001,-0.4631288,0.01103675,0,0,0,0,0,11.99997,52.95662,0.4631288,0,75.41001,-12.0001,5192.057,27741.4
1445,72.25,-12.04184,-0.4662533,0.0111112,0,0,0,0,0,12.0417,53.14079,0.4662533,0,75.80227,-12.04184,5206.622,27831.8
1450,72.5,-12.0833,-0.4699164,0.0111985,0,0,0,0,0,12.08317,53.32379,0.4699164,0,76.19356,-12.0833,5227.035,27954.2
1455,72.75,-12.12517,-0.4735516,0.01128513,0,0,0,0,0,12.12504,53.50855,0.4735516,0,76.59017,-12.12517,5246.621,28073.2
1460,73.0,-12.1669,-0.4769185,0.01136537,0,0,0,0,0,12.16677,53.69272,0.4769185,0,76.9871,-12.1669,5262.992,28175.8
1465,73.25,-12.20824,-0.480332,0.01144671,0,0,0,0,0,12.2081,53.87513,0.480332,0,77.38179,-12.20824,5279.781,28281.4
1470,73.5,-12.25037,-0.4843234,0.01154183,0,0,0,0,0,12.25024,54.06106,0.4843234,0,77.78571,-12.25037,5302.195,28418.3
1475,73.75,-12.29184,-0.4876853,0.01162195,0,0,0,0,0,12.2917,54.24406,0.4876853,0,78.18485,-12.29184,5317.731,28519
1480,74.0,-12.3333,-0.4912576,0.01170708,0,0,0,0,0,12.33317,54.42706,0.4912576,0,78.58559,-12.3333,5335.26,28631.4
1485,74.25,-12.3753,-0.4951899,0.01180079,0,0,0,0,0,12.37517,54.6124,0.4951899,0,78.99312,-12.3753,5356.094,28762.6
1490,74.5,-12.41664,-0.4988043,0.01188692,0,0,0,0,0,12.4165,54.79481,0.4988043,0,79.39582,-12.41664,5373.505,28876.1
1495,74.75,-12.45824,-0.5025403,0.01197595,0,0,0,0,0,12.4581,54.97839,0.5025403,0,79.80275,-12.45824,5391.768,28995.2
1500,75.0,-12.5001,-0.5065112,0.01207058,0,0,0,0,0,12.49997,55.16315,0.5065112,0,80.21398,-12.5001,5412.069,29126.4
1505,75.25,-12.54184,-0.5099129,0.01215165,0,0,0,0,0,12.5417,55.34732,0.5099129,0,80.62559,-12.54184,5426.037,29224.5
1510,75.5,-12.5833,-0.5132655,0.01223154,0,0,0,0,0,12.58317,55.53031,0.5132655,0,81.03624,-12.5833,5439.33,29319.7
1515,75.75,-12.62517,-0.5163013,0.01230389,0,0,0,0,0,12.62504,55.71507,0.5163013,0,81.45258,-12.62517,5448.769,29395.3
1520,76.0,-12.6669,-0.5193067,0.01237551,0,0,0,0,0,12.66677,55.89925,0.5193067,0,81.86933,-12.6669,5457.694,29469
1525,76.25,-12.70837,-0.5226504,0.0124552,0,0,0,0,0,12.70823,56.08224,0.5226504,0,82.28513,-12.70837,5470.043,29562
1530,76.5,-12.75037,-0.5256522,0.01252673,0,0,0,0,0,12.75024,56.26759,0.5256522,0,82.70807,-12.75037,5478.241,29633.8
1535,76.75,-12.79184,-0.5290952,0.01260878,0,0,0,0,0,12.7917,56.45058,0.5290952,0,83.12739,-12.79184,5491.05,29731.2
1540,77.0,-12.83344,-0.5327835,0.01269667,0,0,0,0,0,12.8333,56.63417,0.5327834,0,83.54983,-12.83344,5506.018,29841.4
1545,77.25,-12.8753,-0.5363037,0.01278056,0,0,0,0,0,12.87517,56.81892,0.5363037,0,83.97679,-12.8753,5518.785,29940.9
1550,77.5,-12.91677,-0.5401889,0.01287315,0,0,0,0,0,12.91664,57.00192,0.5401889,0,84.40148,-12.91677,5535.207,30061
1555,77.75,-12.9585,-0.5439299,0.0129623,0,0,0,0,0,12.95837,57.18609,0.5439299,0,84.83072,-12.9585,5549.669,30171.7
1560,78.0,-12.99997,-0.5476257,0.01305038,0,0,0,0,0,12.99984,57.36909,0.5476257,0,85.25906,-12.99997,5563.495,30279.8
1565,78.25,-13.0417,-0.5519585,0.01315363,0,0,0,0,0,13.04157,57.55326,0.5519584,0,85.692,-13.0417,5583.287,30421.7
1570,78.5,-13.08357,-0.5559519,0.0132488,0,0,0,0,0,13.08344,57.73802,0.5559519,0,86.12823,-13.08357,5599.204,30543.8
1575,78.75,-13.1249,-0.559703,0.01333819,0,0,0,0,0,13.12477,57.92042,0.5597031,0,86.56077,-13.1249,5612.654,30653
1580,79.0,-13.1669,-0.5641461,0.01344407,0,0,0,0,0,13.16677,58.10577,0.5641461,0,87.00222,-13.1669,5632.29,30797.8
1585,79.25,-13.20877,-0.5679415,0.01353452,0,0,0,0,0,13.20863,58.29053,0.5679415,0,87.4442,-13.20877,5645.176,30906.7
1590,79.5,-13.24997,-0.57229,0.01363815,0,0,0,0,0,13.24983,58.47235,0.5722901,0,87.88107,-13.24997,5663.603,31046.5
1595,79.75,-13.29197,-0.5771115,0.01375305,0,0,0,0,0,13.29183,58.6577,0.5771115,0,88.32839,-13.29197,5685.827,31209.2
1600,80.0,-13.33343,-0.5813502,0.01385406,0,0,0,0,0,13.3333,58.84069,0.5813502,0,88.772,-13.33343,5702.235,31340.6
1605,80.25,-13.37517,-0.585766,0.01395929,0,0,0,0,0,13.37503,59.02486,0.585766,0,89.22048,-13.37517,5719.838,31480.1
1610,80.50001,-13.41677,-0.5901284,0.01406325,0,0,0,0,0,13.41663,59.20845,0.5901284,0,89.66951,-13.41677,5736.618,31616.3
1615,80.75001,-13.4585,-0.5945236,0.01416799,0,0,0,0,0,13.45837,59.39262,0.5945236,0,90.12203,-13.4585,5753.251,31752.9
1620,81.00001,-13.49997,-0.598647,0.01426626,0,0,0,0,0,13.49983,59.57561,0.5986471,0,90.57369,-13.49997,5767.047,31875
1625,81.25001,-13.5417,-0.6029085,0.01436781,0,0,0,0,0,13.54157,59.75978,0.6029085,0,91.03033,-13.5417,5781.638,32002.9
1630,81.50001,-13.5837,-0.6070427,0.01446633,0,0,0,0,0,13.58357,59.94513,0.6070427,0,91.492,-13.5837,5794.471,32122.7
1635,81.75001,-13.62503,-0.6110104,0.01456089,0,0,0,0,0,13.6249,60.12754,0.6110104,0,91.94843,-13.62503,5805.784,32234.6
1640,82.00001,-13.66663,-0.6148663,0.01465277,0,0,0,0,0,13.6665,60.31112,0.6148663,0,92.40992,-13.66663,5815.522,32339.3
1645,82.25001,-13.7085,-0.619509,0.01476342,0,0,0,0,0,13.70837,60.49588,0.619509,0,92.87652,-13.7085,5832.158,32484
1650,82.50001,-13.7501,-0.6243966,0.01487989,0,0,0,0,0,13.74997,60.67946,0.6243966,0,93.34232,-13.7501,5850.853,32641.2
1655,82.75001,-13.79183,-0.6281932,0.01497037,0,0,0,0,0,13.7917,60.86364,0.6281932,0,93.81181,-13.79183,5858.857,32740.3
1660,83.00001,-13.83343,-0.6320463,0.01506219,0,0,0,0,0,13.8333,61.04721,0.6320463,0,94.28198,-13.83343,5867.142,32842.1
1665,83.25001,-13.8753,-0.6357137,0.01514959,0,0,0,0,0,13.87517,61.23198,0.6357137,0,94.75744,-13.8753,5873.195,32932.9
1670,83.50001,-13.91663,-0.6397729,0.01524632,0,0,0,0,0,13.9165,61.41439,0.6397728,0,95.22907,-13.91663,5882.886,33044.8
1675,83.75001,-13.95837,-0.6438209,0.01534279,0,0,0,0,0,13.95823,61.59855,0.6438209,0,95.70751,-13.95837,5891.852,33154.5
1680,84.00001,-14.00037,-0.6482315,0.0154479,0,0,0,0,0,14.00023,61.7839,0.6482315,0,96.19134,-14.00037,5903.583,33281.5
1685,84.25001,-14.04157,-0.652274,0.01554423,0,0,0,0,0,14.04143,61.96572,0.652274,0,96.66823,-14.04157,5912.137,33390.7
1690,84.50001,-14.08343,-0.6567647,0.01565125,0,0,0,0,0,14.0833,62.15048,0.6567647,0,97.15519,-14.08343,5923.923,33520.7
1695,84.75001,-14.12543,-0.6615156,0.01576447,0,0,0,0,0,14.1253,62.33583,0.6615156,0,97.64609,-14.12543,5937.556,33662.8
1700,85.00001,-14.16663,-0.6649702,0.01584679,0,0,0,0,0,14.1665,62.51765,0.6649702,0,98.12999,-14.16663,5939.751,33740.1
1705,85.25001,-14.20837,-0.6690904,0.01594498,0,0,0,0,0,14.20823,62.70182,0.6690904,0,98.62256,-14.20837,5947.188,33849.5
1710,85.50001,-14.25037,-0.6726567,0.01602997,0,0,0,0,0,14.25023,62.88717,0.6726567,0,99.12074,-14.25037,5949.176,33929.6
1715,85.75001,-14.29183,-0.6761879,0.01611412,0,0,0,0,0,14.2917,63.07016,0.6761879,0,99.61503,-14.29183,5950.919,34008.8
1720,86.00001,-14.3333,-0.6800238,0.01620553,0,0,0,0,0,14.33317,63.25315,0.6800238,0,100.1118,-14.3333,5955.022,34102.7
1725,86.25001,-14.37517,-0.6837415,0.01629413,0,0,0,0,0,14.37503,63.43792,0.6837415,0,100.6158,-14.37517,5957.473,34189.3
1730,86.50001,-14.4169,-0.6872337,0.01637735,0,0,0,0,0,14.41676,63.62209,0.6872337,0,101.1208,-14.4169,5957.739,34264.5
1735,86.75001,-14.45836,-0.6907764,0.01646178,0,0,0,0,0,14.45823,63.80508,0.6907764,0,101.6251,-14.45836,5958.327,34342.3
1740,87.00001,-14.50023,-0.6944561,0.01654947,0,0,0,0,0,14.5001,63.98984,0.6944561,0,102.1369,-14.50023,5959.489,34425.6
1745,87.25001,-14.5417,-0.6981515,0.01663753,0,0,0,0,0,14.54156,64.17284,0.6981515,0,102.6464,-14.5417,5960.756,34510.1
1750,87.50001,-14.58343,-0.7021153,0.01673199,0,0,0,0,0,14.5833,64.35701,0.7021152,0,103.1618,-14.58343,5963.782,34606.7
1755,87.75001,-14.62516,-0.7064267,0.01683474,0,0,0,0,0,14.62503,64.54118,0.7064267,0,103.6798,-14.62516,5969.398,34719.8
1760,88.00001,-14.66663,-0.7108422,0.01693996,0,0,0,0,0,14.6665,64.72417,0.7108422,0,104.1972,-14.66663,5975.712,34838.1
1765,88.25001,-14.7085,-0.7154288,0.01704926,0,0,0,0,0,14.70836,64.90894,0.7154288,0,104.7224,-14.7085,5982.768,34963.1
1770,88.50001,-14.7501,-0.7197262,0.01715167,0,0,0,0,0,14.74996,65.09251,0.7197262,0,105.2469,-14.7501,5987.218,35073.9
1775,88.75001,-14.79183,-0.7243429,0.0172617,0,0,0,0,0,14.7917,65.27669,0.7243429,0,105.7759,-14.79183,5993.832,35199.3
1780,89.00001,-14.83356,-0.7288568,0.01736926,0,0,0,0,0,14.83343,65.46086,0.7288568,0,106.3077,-14.83356,5999.195,35319
1785,89.25001,-14.87503,-0.7331267,0.01747102,0,0,0,0,0,14.8749,65.64385,0.7331267,0,106.8389,-14.87503,6002.369,35426.8
1790,89.50001,-14.91703,-0.7381061,0.01758968,0,0,0,0,0,14.9169,65.8292,0.7381061,0,107.3799,-14.91703,6010.535,35567
1795,89.75001,-14.9585,-0.7423259,0.01769025,0,0,0,0,0,14.95836,66.0122,0.7423259,0,107.9168,-14.9585,6012.525,35671.2
1800,90.00001,-14.99996,-0.7465267,0.01779035,0,0,0,0,0,14.99983,66.19519,0.7465267,0,108.4567,-14.99996,6013.995,35773.9
1805,90.246,-15.0413,-0.7518175,0.01791644,0,0,0,0,0,15.04116,66.37759,0.7518175,0,108.9978,-15.0413,6023.937,35928.4