File: GFBaking/em/1_g13_3.csv
,Time sec,Extension mm,Load kgf,Compressive stress MPa,Cycle Count ,Total Cycle Count ,Repetitions Count ,Marked Data ,PIP Count ,Compressive extension mm,Compressive strain %,Compressive load kgf,Displacement (Strain 1) mm,True strain %,Corrected Position mm,True stress Pa,Elastic Modulus
0,0.0,0.0,-0.01047145,0.000270142,0,0,0,0,0,0.0,0.0,0.01047145,0,0.0,0.0,270.142,inf
5,0.25,-0.03533325,-0.01172095,0.0003023767,0,0,0,0,0,0.03533325,0.1606057,0.01172095,0,0.1607348,-0.03533325,301.8911,238444
10,0.5,-0.0819998,-0.01330683,0.000343289,0,0,0,0,0,0.0819998,0.3727264,0.01330683,0,0.3734227,-0.0819998,342.0095,116646
15,0.7500001,-0.124933,-0.01442431,0.0003721178,0,0,0,0,0,0.124933,0.5678775,0.01442431,0,0.569496,-0.124933,370.0046,82989.9
20,1.0,-0.1667996,-0.01539698,0.0003972109,0,0,0,0,0,0.1667996,0.75818,0.01539698,0,0.7610688,-0.1667996,394.1993,66351.1
25,1.25,-0.2085328,-0.01639759,0.0004230244,0,0,0,0,0,0.2085328,0.9478765,0.01639759,0,0.9523974,-0.2085328,419.0147,56521.4
30,1.5,-0.2503994,-0.01731835,0.0004467781,0,0,0,0,0,0.2503994,1.138179,0.01731835,0,1.144706,-0.2503994,441.6929,49714.2
35,1.75,-0.2919993,-0.01805893,0.0004658836,0,0,0,0,0,0.2919993,1.327269,0.01805893,0,1.336156,-0.2919993,459.7001,44454.7
40,2.0,-0.3334659,-0.01894835,0.0004888288,0,0,0,0,0,0.3334659,1.515754,0.01894834,0,1.527359,-0.3334659,481.4193,40843.9
45,2.25,-0.3754658,-0.01981517,0.0005111911,0,0,0,0,0,0.3754658,1.706663,0.01981517,0,1.721394,-0.3754658,502.4668,37934.5
50,2.5,-0.4166657,-0.02068638,0.0005336665,0,0,0,0,0,0.4166656,1.893935,0.02068638,0,1.912099,-0.4166657,523.5592,35686.5
55,2.75,-0.4583989,-0.02150996,0.0005549131,0,0,0,0,0,0.4583989,2.083631,0.02150996,0,2.105645,-0.4583989,543.3508,33729
60,3.0,-0.5003988,-0.02256948,0.0005822467,0,0,0,0,0,0.5003988,2.27454,0.02256948,0,2.300807,-0.5003988,569.0033,32420
65,3.25,-0.5418654,-0.02344366,0.0006047988,0,0,0,0,0,0.5418653,2.463024,0.02344367,0,2.493864,-0.5418654,589.9025,31098.7
70,3.5,-0.5834653,-0.0242549,0.000625727,0,0,0,0,0,0.5834653,2.652115,0.0242549,0,2.687918,-0.5834653,609.132,29880.8
75,3.75,-0.6253318,-0.02542596,0.0006559381,0,0,0,0,0,0.6253318,2.842417,0.02542596,0,2.883596,-0.6253318,637.2936,29226.3
80,4.0,-0.6669317,-0.02633175,0.0006793056,0,0,0,0,0,0.6669317,3.031508,0.02633175,0,3.078408,-0.6669317,658.7124,28379.6
85,4.25,-0.7085316,-0.02742822,0.0007075923,0,0,0,0,0,0.7085316,3.220598,0.02742822,0,3.2736,-0.7085316,684.8036,27825.7
90,4.5,-0.7501315,-0.02837945,0.000732132,0,0,0,0,0,0.7501315,3.409689,0.02837945,0,3.469175,-0.7501315,707.1686,27194
95,4.75,-0.7919981,-0.02952337,0.0007616428,0,0,0,0,0,0.791998,3.599991,0.02952337,0,3.666389,-0.7919981,734.2238,26794.7
100,5.0,-0.8334646,-0.03037803,0.0007836913,0,0,0,0,0,0.8334646,3.788476,0.03037803,0,3.862104,-0.8334646,754.0014,26198.7
105,5.25,-0.8753312,-0.03146933,0.0008118448,0,0,0,0,0,0.8753312,3.978778,0.03146933,0,4.060096,-0.8753312,779.5433,25841.8
110,5.5,-0.9169311,-0.03233634,0.0008342118,0,0,0,0,0,0.9169311,4.167869,0.03233634,0,4.257216,-0.9169311,799.4429,25349
115,5.75,-0.9583976,-0.03355564,0.0008656672,0,0,0,0,0,0.9583976,4.356353,0.03355564,0,4.454091,-0.9583976,827.9557,25166.7
120,6.0,-1.000264,-0.03428607,0.0008845108,0,0,0,0,0,1.000264,4.546656,0.03428607,0,4.65326,-1.000264,844.2951,24638.3
125,6.25,-1.041997,-0.03560141,0.000918444,0,0,0,0,0,1.041997,4.736352,0.03560141,0,4.85219,-1.041997,874.9432,24558.9
130,6.5,-1.083464,-0.03624648,0.0009350853,0,0,0,0,0,1.083464,4.924837,0.03624647,0,5.050241,-1.083464,889.0339,24046.9
135,6.75,-1.125064,-0.03761698,0.0009704414,0,0,0,0,0,1.125064,5.113927,0.03761698,0,5.249325,-1.125064,920.8138,24033.3
140,7.0,-1.167064,-0.03833987,0.0009890908,0,0,0,0,0,1.167064,5.304836,0.03833988,0,5.450725,-1.167064,936.6211,23613.7
145,7.25,-1.20853,-0.03963259,0.00102244,0,0,0,0,0,1.20853,5.49332,0.03963259,0,5.649967,-1.20853,966.2742,23572.3
150,7.5,-1.249997,-0.04015968,0.001036038,0,0,0,0,0,1.249997,5.681804,0.04015968,0,5.849606,-1.249997,977.1723,23093.4
155,7.75,-1.292264,-0.04176197,0.001077374,0,0,0,0,0,1.292264,5.873925,0.04176197,0,6.053508,-1.292264,1014.09,23229.3
160,8.0,-1.333463,-0.0421457,0.001087273,0,0,0,0,0,1.333463,6.061198,0.0421457,0,6.252665,-1.333463,1021.371,22718.5
165,8.25,-1.37493,-0.04334959,0.001118331,0,0,0,0,0,1.37493,6.249682,0.04334959,0,6.453513,-1.37493,1048.439,22662.7
170,8.5,-1.417063,-0.04441704,0.001145869,0,0,0,0,0,1.417063,6.441196,0.04441704,0,6.658003,-1.417063,1072.062,22530.3
175,8.75,-1.458396,-0.0448909,0.001158094,0,0,0,0,0,1.458396,6.629075,0.0448909,0,6.859018,-1.458396,1081.323,22125.3
180,9.0,-1.499996,-0.04616033,0.001190842,0,0,0,0,0,1.499996,6.818165,0.04616033,0,7.061739,-1.499996,1109.649,22120.1
185,9.25,-1.541996,-0.04669215,0.001204562,0,0,0,0,0,1.541996,7.009074,0.04669215,0,7.266827,-1.541996,1120.134,21765.5
190,9.5,-1.583463,-0.04826874,0.001245235,0,0,0,0,0,1.583463,7.197558,0.04826874,0,7.469723,-1.583463,1155.609,21911.2
195,9.75,-1.625196,-0.04827036,0.001245277,0,0,0,0,0,1.625196,7.387255,0.04827036,0,7.674342,-1.625196,1153.285,21349.2
200,10.0,-1.666796,-0.05000091,0.001289922,0,0,0,0,0,1.666796,7.576345,0.05000091,0,7.878723,-1.666796,1192.193,21562.7
205,10.25,-1.708796,-0.05015705,0.00129395,0,0,0,0,0,1.708796,7.767253,0.05015705,0,8.085495,-1.708796,1193.445,21098.4
210,10.5,-1.750262,-0.05181336,0.001336679,0,0,0,0,0,1.750262,7.955738,0.05181336,0,8.290061,-1.750262,1230.337,21278.7
215,10.75,-1.791862,-0.05199275,0.001341307,0,0,0,0,0,1.791862,8.144829,0.05199275,0,8.495707,-1.791862,1232.06,20856.7
220,11.0,-1.833729,-0.05353778,0.001381166,0,0,0,0,0,1.833729,8.335132,0.05353778,0,8.7031,-1.833729,1266.044,20986.1
225,11.25,-1.875329,-0.05396857,0.001392279,0,0,0,0,0,1.875329,8.524221,0.05396857,0,8.909596,-1.875329,1273.598,20685.7
230,11.5,-1.916929,-0.05536993,0.001428431,0,0,0,0,0,1.916929,8.713312,0.05536993,0,9.116522,-1.916929,1303.968,20762.3
235,11.75,-1.958529,-0.0558093,0.001439766,0,0,0,0,0,1.958529,8.902403,0.0558093,0,9.323875,-1.958529,1311.593,20482.5
240,12.0,-2.000262,-0.05724712,0.001476859,0,0,0,0,0,2.000262,9.092099,0.05724712,0,9.532327,-2.000262,1342.582,20571.9
245,12.25,-2.041728,-0.05816294,0.001500485,0,0,0,0,0,2.041728,9.280584,0.05816294,0,9.739878,-2.041728,1361.232,20476.5
250,12.5,-2.083462,-0.05902084,0.001522617,0,0,0,0,0,2.083462,9.470281,0.05902084,0,9.9492,-2.083462,1378.421,20362.3
255,12.75,-2.125328,-0.0597169,0.001540574,0,0,0,0,0,2.125328,9.660583,0.0597169,0,10.15963,-2.125328,1391.746,20196.6
260,13.0,-2.166661,-0.0607013,0.00156597,0,0,0,0,0,2.166662,9.848461,0.0607013,0,10.36782,-2.166661,1411.746,20137.9
265,13.25,-2.208661,-0.06213357,0.00160292,0,0,0,0,0,2.208661,10.03937,0.06213357,0,10.57981,-2.208661,1441.997,20221.1
270,13.5,-2.250395,-0.06216697,0.001603781,0,0,0,0,0,2.250395,10.22907,0.06216697,0,10.79089,-2.250395,1439.729,19856.8
275,13.75,-2.291861,-0.06415763,0.001655136,0,0,0,0,0,2.291861,10.41755,0.06415763,0,11.00108,-2.291861,1482.712,20121.8
280,14.0,-2.333728,-0.06427841,0.001658252,0,0,0,0,0,2.333728,10.60785,0.06427841,0,11.21373,-2.333728,1482.347,19798
285,14.25,-2.375328,-0.06600905,0.001702899,0,0,0,0,0,2.375328,10.79694,0.06600904,0,11.42549,-2.375328,1519.038,19975
290,14.5,-2.416927,-0.0664105,0.001713256,0,0,0,0,0,2.416927,10.98603,0.0664105,0,11.63769,-2.416927,1525.037,19750.6
295,14.75,-2.458527,-0.06770182,0.001746569,0,0,0,0,0,2.458528,11.17513,0.06770182,0,11.85034,-2.458527,1551.388,19794
300,15.0,-2.50026,-0.06849138,0.001766938,0,0,0,0,0,2.500261,11.36482,0.06849138,0,12.06413,-2.50026,1566.129,19690.6
305,15.25,-2.541861,-0.06936714,0.001789531,0,0,0,0,0,2.541861,11.55391,0.06936714,0,12.2777,-2.541861,1582.77,19615.9
310,15.5,-2.583327,-0.07076036,0.001825473,0,0,0,0,0,2.583327,11.7424,0.07076035,0,12.49103,-2.583327,1611.119,19688.7
315,15.75,-2.625194,-0.07169622,0.001849617,0,0,0,0,0,2.625194,11.9327,0.07169622,0,12.70689,-2.625194,1628.907,19631
320,16.0,-2.666927,-0.07274336,0.001876631,0,0,0,0,0,2.666927,12.1224,0.07274336,0,12.92252,-2.666927,1649.138,19606
325,16.25,-2.708393,-0.07365948,0.001900265,0,0,0,0,0,2.708393,12.31088,0.07365948,0,13.13723,-2.708393,1666.325,19549
330,16.5,-2.75026,-0.07503737,0.001935811,0,0,0,0,0,2.75026,12.50118,0.07503737,0,13.35449,-2.75026,1693.812,19611.5
335,16.75,-2.791993,-0.07594557,0.001959241,0,0,0,0,0,2.791993,12.69088,0.07594556,0,13.57152,-2.791993,1710.596,19552.2
340,17.0,-2.83346,-0.07702676,0.001987134,0,0,0,0,0,2.83346,12.87936,0.07702676,0,13.78764,-2.83346,1731.204,19540.3
345,17.25,-2.875193,-0.07800438,0.002012354,0,0,0,0,0,2.875193,13.06906,0.07800438,0,14.00562,-2.875193,1749.359,19501.1
350,17.5,-2.916926,-0.0789096,0.002035707,0,0,0,0,0,2.916926,13.25876,0.0789096,0,14.22407,-2.916926,1765.798,19445.2
355,17.75,-2.958526,-0.08007533,0.00206578,0,0,0,0,0,2.958526,13.44785,0.08007532,0,14.4423,-2.958526,1787.977,19455
360,18.0,-3.000126,-0.08081284,0.002084807,0,0,0,0,0,3.000126,13.63694,0.08081284,0,14.66101,-3.000126,1800.503,19361.9
365,18.25,-3.042126,-0.08148132,0.002102052,0,0,0,0,0,3.042126,13.82784,0.08148132,0,14.88231,-3.042126,1811.384,19252.5
370,18.5,-3.083326,-0.08204418,0.002116573,0,0,0,0,0,3.083326,14.01512,0.08204418,0,15.09987,-3.083326,1819.933,19126.5
375,18.75,-3.125059,-0.08277697,0.002135477,0,0,0,0,0,3.125059,14.20481,0.08277698,0,15.32073,-3.125059,1832.137,19039.6
380,19.0,-3.167059,-0.08325933,0.002147921,0,0,0,0,0,3.167059,14.39572,0.08325933,0,15.54349,-3.167059,1838.712,18896.6
385,19.25,-3.208392,-0.08412454,0.002170242,0,0,0,0,0,3.208392,14.5836,0.08412454,0,15.76321,-3.208392,1853.742,18847
390,19.5,-3.250392,-0.08465255,0.002183863,0,0,0,0,0,3.250392,14.77451,0.08465255,0,15.98696,-3.250392,1861.208,18720.2
395,19.75,-3.291992,-0.08555584,0.002207167,0,0,0,0,0,3.291992,14.9636,0.08555584,0,16.20908,-3.291992,1876.895,18680.9
400,20.0,-3.333592,-0.08637561,0.002228315,0,0,0,0,0,3.333592,15.15269,0.08637561,0,16.43169,-3.333592,1890.665,18624.6
405,20.25,-3.375192,-0.08715257,0.002248359,0,0,0,0,0,3.375192,15.34178,0.08715257,0,16.6548,-3.375192,1903.421,18560.5
410,20.5,-3.416792,-0.08822659,0.002276066,0,0,0,0,0,3.416791,15.53087,0.08822659,0,16.87841,-3.416792,1922.573,18560.4
415,20.75,-3.458658,-0.08908584,0.002298233,0,0,0,0,0,3.458658,15.72117,0.08908584,0,17.10395,-3.458658,1936.924,18514.3
420,21.0,-3.500258,-0.08993372,0.002320107,0,0,0,0,0,3.500258,15.91026,0.08993372,0,17.32857,-3.500258,1950.972,18468.4
425,21.25,-3.541991,-0.09042666,0.002332824,0,0,0,0,0,3.541991,16.09996,0.09042666,0,17.55441,-3.541991,1957.24,18350.9
430,21.5,-3.583458,-0.09149463,0.002360375,0,0,0,0,0,3.583458,16.28845,0.09149463,0,17.77932,-3.583458,1975.907,18352.7
435,21.75,-3.624924,-0.09212364,0.002376602,0,0,0,0,0,3.624924,16.47693,0.09212364,0,18.00473,-3.624924,1985.011,18267.5
440,22.0,-3.666924,-0.09277978,0.002393529,0,0,0,0,0,3.666924,16.66784,0.09277978,0,18.23356,-3.666924,1994.58,18186.9
445,22.25,-3.708658,-0.09325911,0.002405895,0,0,0,0,0,3.708658,16.85753,0.09325911,0,18.46146,-3.708658,2000.321,18075.1
450,22.5,-3.750124,-0.09416087,0.002429159,0,0,0,0,0,3.750124,17.04602,0.09416087,0,18.68842,-3.750124,2015.084,18048.1
455,22.75,-3.791724,-0.09487269,0.002447522,0,0,0,0,0,3.791724,17.23511,0.09487269,0,18.91662,-3.791724,2025.689,17985.1
460,23.0,-3.833857,-0.09526106,0.002457541,0,0,0,0,0,3.833857,17.42662,0.09526106,0,19.14829,-3.833857,2029.275,17860.2
465,23.25,-3.875324,-0.09574424,0.002470007,0,0,0,0,0,3.875324,17.61511,0.09574424,0,19.37681,-3.875324,2034.912,17758.7
470,23.5,-3.916657,-0.09671416,0.002495029,0,0,0,0,0,3.916657,17.80299,0.09671416,0,19.60512,-3.916657,2050.839,17749.3
475,23.75,-3.958791,-0.09721989,0.002508075,0,0,0,0,0,3.958791,17.9945,0.09721989,0,19.83839,-3.958791,2056.76,17652.2
480,24.0,-4.000257,-0.09876015,0.002547811,0,0,0,0,0,4.000257,18.18299,0.09876015,0,20.0685,-4.000257,2084.543,17746
485,24.25,-4.04159,-0.0985696,0.002542895,0,0,0,0,0,4.04159,18.37086,0.0985696,0,20.29839,-4.04159,2075.743,17530.7
490,24.5,-4.083723,-0.1004216,0.002590673,0,0,0,0,0,4.083723,18.56238,0.1004216,0,20.53328,-4.083723,2109.782,17675.8
495,24.75,-4.12519,-0.1003018,0.002587582,0,0,0,0,0,4.12519,18.75086,0.1003018,0,20.765,-4.12519,2102.388,17477.2
500,25.0,-4.16679,-0.1018943,0.002628664,0,0,0,0,0,4.16679,18.93995,0.1018943,0,20.998,-4.16679,2130.796,17577.4
505,25.25,-4.208523,-0.1025084,0.002644508,0,0,0,0,0,4.208523,19.12965,0.1025084,0,21.23229,-4.208523,2138.623,17508
510,25.5,-4.250123,-0.1034281,0.002668235,0,0,0,0,0,4.250123,19.31874,0.1034281,0,21.46639,-4.250123,2152.766,17492.2
515,25.75,-4.29199,-0.1041364,0.002686507,0,0,0,0,0,4.29199,19.50904,0.1041364,0,21.70254,-4.29199,2162.395,17440.2
520,26.0,-4.333456,-0.1048622,0.002705232,0,0,0,0,0,4.333456,19.69753,0.1048622,0,21.93698,-4.333456,2172.368,17393.7
525,26.25,-4.375323,-0.1060012,0.002734614,0,0,0,0,0,4.375323,19.88783,0.1060012,0,22.17424,-4.375323,2190.759,17414.4
530,26.5,-4.416923,-0.1066648,0.002751734,0,0,0,0,0,4.416923,20.07692,0.1066648,0,22.41055,-4.416923,2199.271,17358.4
535,26.75,-4.458389,-0.1076818,0.002777972,0,0,0,0,0,4.458389,20.26541,0.1076818,0,22.64666,-4.458389,2215.005,17360.9
540,27.0,-4.500389,-0.1082642,0.002792997,0,0,0,0,0,4.500389,20.45631,0.1082642,0,22.88638,-4.500389,2221.652,17291.9
545,27.25,-4.541856,-0.10899,0.002811719,0,0,0,0,0,4.541856,20.6448,0.10899,0,23.12362,-4.541856,2231.246,17248.9
550,27.5,-4.583589,-0.1096492,0.002828727,0,0,0,0,0,4.583589,20.83449,0.1096492,0,23.36295,-4.583589,2239.376,17195.2
555,27.75,-4.625189,-0.1104431,0.002849208,0,0,0,0,0,4.625189,21.02358,0.1104431,0,23.60209,-4.625189,2250.202,17163.9
560,28.0,-4.666789,-0.1112402,0.00286977,0,0,0,0,0,4.666789,21.21268,0.1112402,0,23.84181,-4.666789,2261.015,17133.7
565,28.25,-4.708388,-0.1117808,0.002883718,0,0,0,0,0,4.708388,21.40177,0.1117808,0,24.08209,-4.708388,2266.551,17064.8
570,28.5,-4.750122,-0.1124196,0.002900197,0,0,0,0,0,4.750122,21.59146,0.1124196,0,24.32374,-4.750122,2274.002,17011.6
575,28.75,-4.791989,-0.1130102,0.002915433,0,0,0,0,0,4.791988,21.78177,0.1130102,0,24.56674,-4.791989,2280.4,16951.5
580,29.0,-4.833455,-0.1135985,0.002930611,0,0,0,0,0,4.833455,21.97025,0.1135985,0,24.808,-4.833455,2286.748,16893.6
585,29.25,-4.875455,-0.1143022,0.002948764,0,0,0,0,0,4.875455,22.16116,0.1143022,0,25.05296,-4.875455,2295.284,16851.8
590,29.5,-4.917055,-0.11474,0.002960059,0,0,0,0,0,4.917055,22.35025,0.11474,0,25.29619,-4.917055,2298.478,16773.2
595,29.75,-4.958388,-0.1154099,0.00297734,0,0,0,0,0,4.958388,22.53813,0.1154099,0,25.53843,-4.958388,2306.304,16730.5
600,30.0,-5.000521,-0.1160053,0.002992701,0,0,0,0,0,5.000521,22.72964,0.1160053,0,25.78598,-5.000521,2312.471,16675.2
605,30.25,-5.041854,-0.116669,0.003009822,0,0,0,0,0,5.041854,22.91752,0.116669,0,26.02942,-5.041854,2320.046,16633.1
610,30.5,-5.083587,-0.1171036,0.003021035,0,0,0,0,0,5.083588,23.10722,0.1171036,0,26.27581,-5.083587,2322.958,16558
615,30.75,-5.125187,-0.1176333,0.003034699,0,0,0,0,0,5.125187,23.29631,0.1176333,0,26.52203,-5.125187,2327.726,16497.9
620,31.0,-5.166921,-0.1182877,0.003051582,0,0,0,0,0,5.166921,23.486,0.1182877,0,26.76965,-5.166921,2334.887,16455.7
625,31.25,-5.208521,-0.1188132,0.003065139,0,0,0,0,0,5.208521,23.67509,0.1188132,0,27.01709,-5.208521,2339.464,16396.7
630,31.5,-5.249987,-0.1194252,0.003080927,0,0,0,0,0,5.249987,23.86358,0.1194252,0,27.26434,-5.249987,2345.707,16351
635,31.75,-5.291854,-0.1199632,0.003094807,0,0,0,0,0,5.291854,24.05388,0.1199632,0,27.51461,-5.291854,2350.386,16294.7
640,32.0,-5.333587,-0.1206721,0.003113094,0,0,0,0,0,5.333587,24.24358,0.1206721,0,27.7647,-5.333587,2358.368,16262.8
645,32.25,-5.375054,-0.1212183,0.003127185,0,0,0,0,0,5.375054,24.43206,0.1212183,0,28.01381,-5.375054,2363.149,16210.4
650,32.5,-5.417054,-0.1219433,0.003145888,0,0,0,0,0,5.417054,24.62297,0.1219433,0,28.26676,-5.417054,2371.277,16180.9
655,32.75,-5.45852,-0.1225114,0.003160546,0,0,0,0,0,5.45852,24.81145,0.1225114,0,28.51713,-5.45852,2376.368,16132.8
660,33.0,-5.500253,-0.1231301,0.003176506,0,0,0,0,0,5.500253,25.00115,0.1231301,0,28.76974,-5.500253,2382.343,16091.2
665,33.25,-5.541986,-0.1236794,0.003190676,0,0,0,0,0,5.541986,25.19085,0.1236794,0,29.02299,-5.541986,2386.918,16041.3
670,33.5,-5.58372,-0.1242107,0.003204384,0,0,0,0,0,5.58372,25.38054,0.1242107,0,29.27689,-5.58372,2391.094,15989.8
675,33.75,-5.625186,-0.1245885,0.003214129,0,0,0,0,0,5.625186,25.56903,0.1245885,0,29.52981,-5.625186,2392.307,15920.2
680,34.0,-5.666653,-0.1246115,0.003214723,0,0,0,0,0,5.666653,25.75751,0.1246115,0,29.78336,-5.666653,2386.69,15806.6
685,34.25,-5.708786,-0.1256172,0.003240668,0,0,0,0,0,5.708786,25.94903,0.1256172,0,30.04165,-5.708786,2399.746,15816.6
690,34.5,-5.750119,-0.1257607,0.003244369,0,0,0,0,0,5.750119,26.13691,0.1257607,0,30.29569,-5.750119,2396.391,15720.8
695,34.75,-5.791586,-0.1265127,0.00326377,0,0,0,0,0,5.791586,26.32539,0.1265127,0,30.5512,-5.791586,2404.57,15701.6
700,35.0,-5.833853,-0.1270006,0.003276358,0,0,0,0,0,5.833853,26.51751,0.1270006,0,30.81231,-5.833853,2407.549,15648
705,35.25,-5.875052,-0.1275139,0.003289599,0,0,0,0,0,5.875052,26.70478,0.1275139,0,31.06748,-5.875052,2411.118,15601
710,35.5,-5.917052,-0.1285004,0.003315048,0,0,0,0,0,5.917052,26.89569,0.1285004,0,31.32829,-5.917052,2423.443,15610.1
715,35.75,-5.958519,-0.128914,0.003325719,0,0,0,0,0,5.958519,27.08418,0.128914,0,31.58645,-5.958519,2424.976,15551.4
720,36.0,-5.999985,-0.1299653,0.00335284,0,0,0,0,0,5.999985,27.27266,0.1299653,0,31.84528,-5.999985,2438.432,15569.9
725,36.25,-6.041719,-0.1303395,0.003362494,0,0,0,0,0,6.041718,27.46236,0.1303395,0,32.10646,-6.041719,2439.074,15506.8
730,36.5,-6.083452,-0.1311524,0.003383464,0,0,0,0,0,6.083452,27.65205,0.1311524,0,32.36831,-6.083452,2447.867,15496.5
735,36.75,-6.125452,-0.131924,0.003403371,0,0,0,0,0,6.125452,27.84296,0.131924,0,32.63254,-6.125452,2455.772,15480.8
740,37.0,-6.166785,-0.1325601,0.00341978,0,0,0,0,0,6.166785,28.03084,0.1325601,0,32.89325,-6.166785,2461.187,15451.2
745,37.25,-6.208518,-0.1330592,0.003432657,0,0,0,0,0,6.208518,28.22054,0.1330592,0,33.15718,-6.208518,2463.943,15405.1
750,37.5,-6.250252,-0.1338595,0.003453302,0,0,0,0,0,6.250252,28.41023,0.1338595,0,33.42181,-6.250252,2472.211,15394.3
755,37.75,-6.291585,-0.1345362,0.003470761,0,0,0,0,0,6.291584,28.59811,0.1345362,0,33.68459,-6.291585,2478.189,15370.4
760,38.0,-6.333584,-0.1352587,0.003489398,0,0,0,0,0,6.333584,28.78902,0.1352587,0,33.95232,-6.333584,2484.835,15350.5
765,38.25,-6.375318,-0.1360542,0.003509922,0,0,0,0,0,6.375318,28.97872,0.1360542,0,34.21906,-6.375318,2492.792,15339.7
770,38.5,-6.416918,-0.1367348,0.00352748,0,0,0,0,0,6.416918,29.16781,0.1367348,0,34.48566,-6.416918,2498.592,15316.5
775,38.75,-6.458384,-0.1375344,0.003548107,0,0,0,0,0,6.458385,29.35629,0.1375344,0,34.75212,-6.458384,2506.514,15307.2
780,39.0,-6.500384,-0.1382852,0.003567477,0,0,0,0,0,6.500384,29.5472,0.1382852,0,35.02272,-6.500384,2513.387,15291.3
785,39.25,-6.541984,-0.1389707,0.00358516,0,0,0,0,0,6.541984,29.73629,0.1389707,0,35.29148,-6.541984,2519.067,15269.4
790,39.5,-6.583317,-0.139406,0.003596392,0,0,0,0,0,6.583317,29.92417,0.139406,0,35.55922,-6.583317,2520.202,15221
795,39.75,-6.625451,-0.1403028,0.003619527,0,0,0,0,0,6.625451,30.11568,0.1403028,0,35.8329,-6.625451,2529.482,15221.5
800,40.0,-6.666917,-0.1408519,0.003633692,0,0,0,0,0,6.666917,30.30417,0.1408519,0,36.10297,-6.666917,2532.532,15186.1
805,40.25,-6.708384,-0.1416344,0.003653879,0,0,0,0,0,6.708384,30.49265,0.1416344,0,36.37377,-6.708384,2539.715,15176
810,40.5,-6.750383,-0.1422512,0.003669791,0,0,0,0,0,6.750383,30.68356,0.1422512,0,36.64881,-6.750383,2543.769,15147.3
815,40.75,-6.791717,-0.1430019,0.003689159,0,0,0,0,0,6.791717,30.87144,0.1430019,0,36.92022,-6.791717,2550.262,15134.6
820,41.0,-6.83345,-0.1438708,0.003711573,0,0,0,0,0,6.83345,31.06114,0.1438708,0,37.19501,-6.83345,2558.716,15133.5
825,41.25,-6.875183,-0.1448924,0.00373793,0,0,0,0,0,6.875184,31.25083,0.1448924,0,37.47056,-6.875183,2569.795,15148.5
830,41.5,-6.916916,-0.1457353,0.003759674,0,0,0,0,0,6.916916,31.44053,0.1457353,0,37.74686,-6.916916,2577.612,15144.7
835,41.75,-6.958649,-0.1466138,0.003782338,0,0,0,0,0,6.95865,31.63022,0.1466138,0,38.02393,-6.958649,2585.976,15144.6
840,42.0,-7.000116,-0.1475632,0.003806831,0,0,0,0,0,7.000116,31.81871,0.1475632,0,38.3,-7.000116,2595.546,15152.4
845,42.25,-7.041983,-0.1486635,0.003835217,0,0,0,0,0,7.041983,32.00901,0.1486635,0,38.57951,-7.041983,2607.602,15174.6
850,42.5,-7.083716,-0.1494611,0.003855792,0,0,0,0,0,7.083716,32.19871,0.1494611,0,38.85889,-7.083716,2614.276,15166.1
855,42.75,-7.125049,-0.1505329,0.003883442,0,0,0,0,0,7.12505,32.38659,0.1505329,0,39.13638,-7.125049,2625.728,15186.3
860,43.0,-7.167049,-0.1510741,0.003897404,0,0,0,0,0,7.167049,32.5775,0.1510741,0,39.41913,-7.167049,2627.727,15151.5
865,43.25,-7.208382,-0.1519365,0.003919651,0,0,0,0,0,7.208382,32.76537,0.1519365,0,39.69818,-7.208382,2635.363,15150.7
870,43.5,-7.250249,-0.1525317,0.003935007,0,0,0,0,0,7.250249,32.95568,0.1525317,0,39.98162,-7.250249,2638.199,15122.2
875,43.75,-7.291849,-0.1532816,0.003954352,0,0,0,0,0,7.291849,33.14477,0.1532816,0,40.26406,-7.291849,2643.691,15109.8
880,44.0,-7.333449,-0.1534407,0.003958457,0,0,0,0,0,7.333449,33.33386,0.1534407,0,40.5473,-7.333449,2638.951,15039.7
885,44.25,-7.375048,-0.1538192,0.003968223,0,0,0,0,0,7.375049,33.52295,0.1538192,0,40.83134,-7.375048,2637.957,14991.8
890,44.5,-7.416915,-0.1536797,0.003964623,0,0,0,0,0,7.416914,33.71325,0.1536797,0,41.11801,-7.416915,2628.02,14893.6
895,44.75,-7.458649,-0.1539028,0.003970379,0,0,0,0,0,7.458649,33.90295,0.1539028,0,41.40461,-7.458649,2624.304,14831.8
900,45.0,-7.499982,-0.1541323,0.0039763,0,0,0,0,0,7.499981,34.09082,0.1541323,0,41.68925,-7.499982,2620.747,14772.1
905,45.25,-7.541982,-0.1546412,0.003989427,0,0,0,0,0,7.541982,34.28173,0.1546412,0,41.97933,-7.541982,2621.782,14738.3
910,45.5,-7.583848,-0.1552203,0.004004369,0,0,0,0,0,7.583848,34.47204,0.1552203,0,42.26932,-7.583848,2623.981,14711.8
915,45.75,-7.625048,-0.1554988,0.004011552,0,0,0,0,0,7.625048,34.65931,0.1554988,0,42.55552,-7.625048,2621.176,14658.6
920,46.0,-7.667048,-0.1562718,0.004031495,0,0,0,0,0,7.667048,34.85022,0.1562718,0,42.84812,-7.667048,2626.51,14650.7
925,46.25,-7.708515,-0.1566612,0.00404154,0,0,0,0,0,7.708515,35.0387,0.1566612,0,43.13786,-7.708515,2625.437,14608.2
930,46.5,-7.750248,-0.1572456,0.004056617,0,0,0,0,0,7.750247,35.2284,0.1572456,0,43.43029,-7.750248,2627.536,14583.8
935,46.75,-7.791714,-0.1576675,0.004067502,0,0,0,0,0,7.791714,35.41688,0.1576675,0,43.72171,-7.791714,2626.919,14545.1
940,47.0,-7.833581,-0.1582003,0.004081246,0,0,0,0,0,7.833581,35.60719,0.1582003,0,44.01682,-7.833581,2628.029,14516.2
945,47.25,-7.875181,-0.158577,0.004090964,0,0,0,0,0,7.875181,35.79628,0.158577,0,44.3109,-7.875181,2626.551,14473.9
950,47.5,-7.916648,-0.1587637,0.00409578,0,0,0,0,0,7.916648,35.98476,0.1587637,0,44.60491,-7.916648,2621.924,14415.1
955,47.75,-7.958514,-0.1588531,0.004098087,0,0,0,0,0,7.958514,36.17506,0.1588531,0,44.90262,-7.958514,2615.602,14347.3
960,48.0,-8.000247,-0.1592925,0.004109422,0,0,0,0,0,8.000247,36.36476,0.1592925,0,45.20028,-8.000247,2615.041,14312
965,48.25,-8.04158,-0.159675,0.00411929,0,0,0,0,0,8.04158,36.55264,0.159675,0,45.49596,-8.04158,2613.581,14272.6
970,48.5,-8.083714,-0.1606007,0.004143172,0,0,0,0,0,8.083714,36.74416,0.1606007,0,45.79827,-8.083714,2620.799,14280.5
975,48.75,-8.125314,-0.1610831,0.004155616,0,0,0,0,0,8.125314,36.93324,0.1610831,0,46.09764,-8.125314,2620.812,14250.1
980,49.0,-8.166781,-0.1616261,0.004169624,0,0,0,0,0,8.16678,37.12173,0.1616261,0,46.39696,-8.166781,2621.787,14225.5
985,49.25,-8.208513,-0.1618318,0.004174931,0,0,0,0,0,8.208513,37.31142,0.1618318,0,46.6991,-8.208513,2617.204,14171.2
990,49.5,-8.250513,-0.1624903,0.004191919,0,0,0,0,0,8.250513,37.50233,0.1624903,0,47.00409,-8.250513,2619.852,14156.4
995,49.75,-8.29198,-0.1626828,0.004196886,0,0,0,0,0,8.29198,37.69082,0.1626828,0,47.30614,-8.29198,2615.045,14102.3
1000,50.0,-8.333446,-0.1626873,0.004197001,0,0,0,0,0,8.333447,37.8793,0.1626873,0,47.6091,-8.333446,2607.206,14032.5
1005,50.25,-8.375313,-0.1629865,0.00420472,0,0,0,0,0,8.375313,38.06961,0.1629865,0,47.91591,-8.375313,2604.0,13988.1
1010,50.5,-8.416646,-0.1627764,0.0041993,0,0,0,0,0,8.416646,38.25748,0.1627764,0,48.21974,-8.416646,2592.753,13901.4
1015,50.75,-8.45838,-0.1632577,0.004211716,0,0,0,0,0,8.45838,38.44718,0.1632577,0,48.52745,-8.45838,2592.43,13873.7
1020,51.0,-8.50038,-0.1627546,0.004198738,0,0,0,0,0,8.50038,38.63809,0.1627546,0,48.83809,-8.50038,2576.426,13762.7
1025,51.25,-8.541713,-0.1634438,0.004216516,0,0,0,0,0,8.541713,38.82597,0.1634437,0,49.14474,-8.541713,2579.413,13754
1030,51.5,-8.583579,-0.1628591,0.004201434,0,0,0,0,0,8.583579,39.01627,0.1628591,0,49.45631,-8.583579,2562.191,13638
1035,51.75,-8.625446,-0.163106,0.004207803,0,0,0,0,0,8.625446,39.20657,0.163106,0,49.76885,-8.625446,2558.068,13592.4
1040,52.0,-8.666779,-0.1633349,0.004213708,0,0,0,0,0,8.666779,39.39445,0.1633349,0,50.07837,-8.666779,2553.741,13546.5
1045,52.25,-8.708646,-0.1637771,0.004225117,0,0,0,0,0,8.708646,39.58475,0.1637771,0,50.39287,-8.708646,2552.615,13517.9
1050,52.5,-8.750246,-0.1644942,0.004243616,0,0,0,0,0,8.750246,39.77385,0.1644942,0,50.70635,-8.750246,2555.767,13512.6
1055,52.75,-8.792112,-0.1649367,0.004255031,0,0,0,0,0,8.792111,39.96415,0.1649367,0,51.02282,-8.792112,2554.544,13484.4
1060,53.0,-8.833579,-0.1657901,0.004277048,0,0,0,0,0,8.833579,40.15263,0.1657901,0,51.33727,-8.833579,2559.701,13490.5
1065,53.25,-8.875178,-0.1661091,0.004285276,0,0,0,0,0,8.875178,40.34172,0.1661091,0,51.65372,-8.875178,2556.522,13453.1
1070,53.5,-8.916778,-0.1668981,0.004305631,0,0,0,0,0,8.916779,40.53081,0.1668981,0,51.97118,-8.916778,2560.524,13454
1075,53.75,-8.958378,-0.1670452,0.004309426,0,0,0,0,0,8.958378,40.7199,0.1670452,0,52.28965,-8.958378,2554.632,13403.3
1080,54.0,-9.000245,-0.1678321,0.004329727,0,0,0,0,0,9.000244,40.9102,0.1678321,0,52.61119,-9.000245,2558.427,13403.8
1085,54.25,-9.041845,-0.1683448,0.004342954,0,0,0,0,0,9.041845,41.0993,0.1683448,0,52.93171,-9.041845,2558.03,13382.9
1090,54.5,-9.083444,-0.1689743,0.004359194,0,0,0,0,0,9.083445,41.28838,0.1689744,0,53.25326,-9.083444,2559.353,13371.4
1095,54.75,-9.125178,-0.169738,0.004378896,0,0,0,0,0,9.125177,41.47808,0.169738,0,53.57688,-9.125178,2562.614,13370.4
1100,55.0,-9.167044,-0.1702357,0.004391735,0,0,0,0,0,9.167045,41.66838,0.1702357,0,53.90259,-9.167044,2561.77,13348.4
1105,55.25,-9.208645,-0.1712609,0.004418183,0,0,0,0,0,9.208645,41.85748,0.1712609,0,54.22729,-9.208645,2568.843,13368.1
1110,55.5,-9.249978,-0.171612,0.00442724,0,0,0,0,0,9.249978,42.04535,0.171612,0,54.55094,-9.249978,2565.791,13335.7
1115,55.75,-9.292111,-0.1726928,0.004455122,0,0,0,0,0,9.29211,42.23687,0.1726927,0,54.88195,-9.292111,2573.418,13358.8
1120,56.0,-9.333577,-0.1731936,0.004468043,0,0,0,0,0,9.333577,42.42535,0.1731936,0,55.20878,-9.333577,2572.46,13338
1125,56.25,-9.375044,-0.1742904,0.004496336,0,0,0,0,0,9.375044,42.61384,0.1742903,0,55.5367,-9.375044,2580.275,13363.1
1130,56.5,-9.417044,-0.1748911,0.004511834,0,0,0,0,0,9.417044,42.80474,0.1748911,0,55.86993,-9.417044,2580.555,13349.4
1135,56.75,-9.458377,-0.1759665,0.004539578,0,0,0,0,0,9.458377,42.99262,0.1759665,0,56.19895,-9.458377,2587.895,13372.7
1140,57.0,-9.500111,-0.1766875,0.004558178,0,0,0,0,0,9.500111,43.18232,0.1766875,0,56.53227,-9.500111,2589.851,13368.6
1145,57.25,-9.541843,-0.177906,0.004589612,0,0,0,0,0,9.541843,43.37201,0.177906,0,56.86669,-9.541843,2599.005,13401.9
1150,57.5,-9.583443,-0.1785093,0.004605176,0,0,0,0,0,9.583444,43.56111,0.1785093,0,57.20117,-9.583443,2599.11,13389
1155,57.75,-9.62531,-0.1799163,0.004641475,0,0,0,0,0,9.62531,43.75141,0.1799163,0,57.53892,-9.62531,2610.764,13435.8
1160,58.0,-9.666909,-0.1806137,0.004659466,0,0,0,0,0,9.666909,43.9405,0.1806137,0,57.87565,-9.666909,2612.073,13429.8
1165,58.25,-9.708776,-0.1820725,0.0046971,0,0,0,0,0,9.708776,44.1308,0.1820725,0,58.2157,-9.708776,2624.232,13479.9
1170,58.5,-9.750243,-0.1829301,0.004719225,0,0,0,0,0,9.750243,44.31929,0.1829301,0,58.55364,-9.750243,2627.698,13485.8
1175,58.75,-9.791843,-0.1840938,0.004749245,0,0,0,0,0,9.791842,44.50838,0.1840938,0,58.89381,-9.791843,2635.433,13513.9
1180,59.0,-9.833709,-0.1850463,0.004773817,0,0,0,0,0,9.83371,44.69868,0.1850463,0,59.23734,-9.833709,2639.984,13526
1185,59.25,-9.875176,-0.1862067,0.004803753,0,0,0,0,0,9.875176,44.88717,0.1862067,0,59.57876,-9.875176,2647.485,13553.7
1190,59.5,-9.916776,-0.1871952,0.004829255,0,0,0,0,0,9.916776,45.07626,0.1871952,0,59.92244,-9.916776,2652.408,13568.5
1195,59.75,-9.958509,-0.1882297,0.004855943,0,0,0,0,0,9.958509,45.26595,0.1882297,0,60.26842,-9.958509,2657.854,13586.3
1200,60.0,-10.00024,-0.1896117,0.004891597,0,0,0,0,0,10.00024,45.45565,0.1896117,0,60.6156,-10.00024,2668.09,13628.9
1205,60.25,-10.04171,-0.1903644,0.004911014,0,0,0,0,0,10.04171,45.64413,0.1903644,0,60.96176,-10.04171,2669.424,13626.5
1210,60.5,-10.08344,-0.1924284,0.004964261,0,0,0,0,0,10.08344,45.83383,0.1924284,0,61.31136,-10.08344,2688.95,13717.3
1215,60.75,-10.12544,-0.193173,0.00498347,0,0,0,0,0,10.12544,46.02474,0.193173,0,61.66444,-10.12544,2689.841,13713.2
1220,61.0,-10.16678,-0.1949115,0.005028319,0,0,0,0,0,10.16678,46.21262,0.1949115,0,62.01312,-10.16678,2704.601,13780.4
1225,61.25,-10.20864,-0.1957662,0.005050369,0,0,0,0,0,10.20864,46.40292,0.1957662,0,62.36756,-10.20864,2706.85,13784.1
1230,61.5,-10.25037,-0.1972874,0.005089614,0,0,0,0,0,10.25037,46.59261,0.1972874,0,62.72211,-10.25037,2718.23,13834.6
1235,61.75,-10.29158,-0.1984645,0.00511998,0,0,0,0,0,10.29158,46.77989,0.1984645,0,63.07338,-10.29158,2724.859,13861.4
1240,62.0,-10.33384,-0.1999405,0.005158057,0,0,0,0,0,10.33384,46.97201,0.1999405,0,63.43503,-10.33384,2735.214,13907.4
1245,62.25,-10.37531,-0.2014465,0.00519691,0,0,0,0,0,10.37531,47.16049,0.2014465,0,63.7911,-10.37531,2746.022,13956.2
1250,62.5,-10.41664,-0.2019484,0.005209858,0,0,0,0,0,10.41664,47.34837,0.2019484,0,64.14729,-10.41664,2743.075,13935.4
1255,62.75,-10.45864,-0.2036784,0.005254489,0,0,0,0,0,10.45864,47.53928,0.2036784,0,64.51055,-10.45864,2756.543,13998.4
1260,63.0,-10.50011,-0.2041987,0.005267911,0,0,0,0,0,10.50011,47.72776,0.2041987,0,64.87048,-10.50011,2753.655,13978.7
1265,63.25,-10.54197,-0.2057435,0.005307765,0,0,0,0,0,10.54198,47.91807,0.2057436,0,65.23521,-10.54197,2764.386,14028.5
1270,63.5,-10.58331,-0.2062592,0.005321069,0,0,0,0,0,10.58331,48.10594,0.2062593,0,65.59659,-10.58331,2761.318,14008.7
1275,63.75,-10.62517,-0.2078428,0.005361923,0,0,0,0,0,10.62517,48.29625,0.2078428,0,65.96398,-10.62517,2772.315,14060.7
1280,64.0,-10.66691,-0.2086434,0.005382575,0,0,0,0,0,10.66691,48.48594,0.2086434,0,66.33155,-10.66691,2772.783,14059.6
1285,64.25,-10.70824,-0.2095517,0.005406007,0,0,0,0,0,10.70824,48.67382,0.2095517,0,66.69693,-10.70824,2774.697,14066.3
1290,64.5,-10.75037,-0.2102438,0.005423861,0,0,0,0,0,10.75037,48.86534,0.2102438,0,67.07076,-10.75037,2773.473,14057.5
1295,64.75,-10.79197,-0.2111283,0.005446679,0,0,0,0,0,10.79197,49.05443,0.2111283,0,67.44123,-10.79197,2774.842,14062.2
1300,65.0,-10.83357,-0.2119164,0.005467012,0,0,0,0,0,10.83357,49.24352,0.2119164,0,67.81308,-10.83357,2774.863,14060.5
1305,65.25,-10.87517,-0.2123267,0.005477596,0,0,0,0,0,10.87517,49.43261,0.2123266,0,68.18633,-10.87517,2769.877,14033.8
1310,65.5,-10.91704,-0.213497,0.005507788,0,0,0,0,0,10.91704,49.62291,0.213497,0,68.56337,-10.91704,2774.663,14057
1315,65.75,-10.95864,-0.2138508,0.005516917,0,0,0,0,0,10.95864,49.812,0.2138508,0,68.93942,-10.95864,2768.83,14026.9
1320,66.0,-11.00011,-0.2151299,0.005549912,0,0,0,0,0,11.00011,50.00048,0.2151299,0,69.31568,-11.00011,2774.93,14057.6
1325,66.25,-11.04197,-0.2153682,0.00555606,0,0,0,0,0,11.04197,50.19078,0.2153682,0,69.69702,-11.04197,2767.43,14019.8
1330,66.5,-11.08331,-0.216674,0.005589749,0,0,0,0,0,11.08331,50.37867,0.216674,0,70.07493,-11.08331,2773.708,14052.2
1335,66.75,-11.12504,-0.2176262,0.005614313,0,0,0,0,0,11.12504,50.56836,0.2176262,0,70.45795,-11.12504,2775.247,14061
1340,67.0,-11.16704,-0.218802,0.005644645,0,0,0,0,0,11.16704,50.75927,0.2188019,0,70.8449,-11.16704,2779.464,14083.8
1345,67.25,-11.20837,-0.2196754,0.005667179,0,0,0,0,0,11.20837,50.94715,0.2196754,0,71.22719,-11.20837,2779.913,14087.9
1350,67.5,-11.25037,-0.220714,0.005693972,0,0,0,0,0,11.25037,51.13806,0.220714,0,71.61714,-11.25037,2782.185,14101.7
1355,67.75,-11.29197,-0.2215759,0.005716207,0,0,0,0,0,11.29197,51.32715,0.2215759,0,72.00487,-11.29197,2782.241,14104.6
1360,68.0,-11.33357,-0.2221952,0.005732184,0,0,0,0,0,11.33357,51.51624,0.2221952,0,72.39413,-11.33357,2779.178,14092.1
1365,68.25,-11.37531,-0.222764,0.005746858,0,0,0,0,0,11.37531,51.70593,0.222764,0,72.78615,-11.37531,2775.391,14076.3
1370,68.5,-11.41677,-0.2230429,0.005754053,0,0,0,0,0,11.41677,51.89442,0.2230429,0,73.1772,-11.41677,2768.02,14042.8
1375,68.75,-11.45877,-0.2236824,0.00577055,0,0,0,0,0,11.45877,52.08533,0.2236824,0,73.57484,-11.45877,2764.94,14031.4
1380,69.0,-11.50011,-0.2240636,0.005780385,0,0,0,0,0,11.5001,52.2732,0.2240636,0,73.96772,-11.50011,2758.792,14004.8
1385,69.25,-11.54171,-0.224867,0.005801112,0,0,0,0,0,11.54171,52.4623,0.224867,0,74.36471,-11.54171,2757.715,14004.3
1390,69.5,-11.58357,-0.225847,0.005826393,0,0,0,0,0,11.58357,52.6526,0.225847,0,74.76583,-11.58357,2758.646,14014.6
1395,69.75,-11.62491,-0.2267755,0.005850346,0,0,0,0,0,11.62491,52.84048,0.2267755,0,75.16343,-11.62491,2758.995,14022.1
1400,70.0,-11.66691,-0.2278924,0.005879161,0,0,0,0,0,11.66691,53.03139,0.2278924,0,75.56906,-11.66691,2761.36,14040.5
1405,70.25,-11.7085,-0.2292301,0.005913669,0,0,0,0,0,11.7085,53.22047,0.2292301,0,75.97246,-11.7085,2766.386,14072.7
1410,70.5,-11.74997,-0.2307797,0.005953646,0,0,0,0,0,11.74997,53.40896,0.2307797,0,76.3762,-11.74997,2773.866,14117.8
1415,70.75,-11.79197,-0.2327514,0.006004513,0,0,0,0,0,11.79197,53.59987,0.2327514,0,76.78679,-11.79197,2786.102,14187.7
1420,71.0,-11.8337,-0.2347218,0.006055345,0,0,0,0,0,11.8337,53.78956,0.2347218,0,77.19645,-11.8337,2798.201,14257.4
1425,71.25,-11.87544,-0.2365251,0.006101867,0,0,0,0,0,11.87544,53.97926,0.2365251,0,77.60781,-11.87544,2808.124,14316.4
1430,71.5,-11.91664,-0.2385766,0.00615479,0,0,0,0,0,11.91664,54.16653,0.2385766,0,78.01557,-11.91664,2820.953,14390.7
1435,71.75,-11.95877,-0.2407126,0.006209895,0,0,0,0,0,11.95877,54.35805,0.2407126,0,78.43429,-11.95877,2834.317,14468.4
1440,72.0,-12.00024,-0.2430063,0.006269068,0,0,0,0,0,12.00024,54.54654,0.2430063,0,78.84811,-12.00024,2849.509,14555.8
1445,72.25,-12.0417,-0.2451763,0.00632505,0,0,0,0,0,12.0417,54.73502,0.2451763,0,79.26365,-12.0417,2863.033,14635.2
1450,72.5,-12.0837,-0.2473612,0.006381416,0,0,0,0,0,12.0837,54.92593,0.2473612,0,79.6863,-12.0837,2876.364,14714.3
1455,72.75,-12.12517,-0.2497361,0.006442683,0,0,0,0,0,12.12517,55.11441,0.2497361,0,80.10534,-12.12517,2891.836,14804.7
1460,73.0,-12.16664,-0.2520749,0.006503019,0,0,0,0,0,12.16664,55.30289,0.2520749,0,80.52615,-12.16664,2906.661,14892.5
1465,73.25,-12.2085,-0.2544551,0.006564424,0,0,0,0,0,12.2085,55.4932,0.2544551,0,80.95282,-12.2085,2921.615,14981.5
1470,73.5,-12.25024,-0.2568027,0.006624987,0,0,0,0,0,12.25024,55.6829,0.2568027,0,81.37995,-12.25024,2936.002,15068.2
1475,73.75,-12.29197,-0.2593673,0.006691147,0,0,0,0,0,12.29197,55.87259,0.2593673,0,81.8089,-12.29197,2952.63,15167
1480,74.0,-12.33344,-0.2613851,0.006743202,0,0,0,0,0,12.33344,56.06108,0.2613851,0,82.23696,-12.33344,2962.891,15233.6
1485,74.25,-12.37544,-0.2634328,0.00679603,0,0,0,0,0,12.37544,56.25198,0.2634328,0,82.67239,-12.37544,2973.128,15300.9
1490,74.5,-12.41677,-0.2659616,0.006861268,0,0,0,0,0,12.41677,56.43986,0.2659616,0,83.10277,-12.41677,2988.778,15396.3
1495,74.75,-12.45864,-0.2679606,0.006912839,0,0,0,0,0,12.45864,56.63017,0.2679606,0,83.5406,-12.45864,2998.087,15459.9
1500,75.0,-12.50024,-0.2709193,0.006989167,0,0,0,0,0,12.50024,56.81925,0.2709193,0,83.97755,-12.50024,3017.974,15578.6
1505,75.25,-12.54197,-0.273096,0.00704532,0,0,0,0,0,12.54197,57.00895,0.273096,0,84.41783,-12.54197,3028.857,15651.5
1510,75.5,-12.58344,-0.2756593,0.007111448,0,0,0,0,0,12.58344,57.19744,0.2756593,0,84.85722,-12.58344,3043.882,15746.4
1515,75.75,-12.62517,-0.2784307,0.007182945,0,0,0,0,0,12.62517,57.38713,0.2784307,0,85.30139,-12.62517,3060.859,15852.1
1520,76.0,-12.6669,-0.2809294,0.007247406,0,0,0,0,0,12.6669,57.57683,0.2809294,0,85.74755,-12.6669,3074.579,15941.7
1525,76.25,-12.70837,-0.2837585,0.007320392,0,0,0,0,0,12.70837,57.76531,0.2837585,0,86.19283,-12.70837,3091.745,16049.7
1530,76.5,-12.7501,-0.2866771,0.007395685,0,0,0,0,0,12.7501,57.95501,0.2866771,0,86.643,-12.7501,3109.515,16161.7
1535,76.75,-12.7921,-0.289464,0.007467582,0,0,0,0,0,12.7921,58.14592,0.289464,0,87.09809,-12.7921,3125.488,16265.2
1540,77.0,-12.83344,-0.2917991,0.007527824,0,0,0,0,0,12.83344,58.3338,0.2917991,0,87.54798,-12.83344,3136.558,16343.6
1545,77.25,-12.8753,-0.2945756,0.00759945,0,0,0,0,0,12.8753,58.5241,0.2945756,0,88.00576,-12.8753,3151.941,16445.5
1550,77.5,-12.91704,-0.2971817,0.007666682,0,0,0,0,0,12.91704,58.7138,0.2971817,0,88.46418,-12.91704,3165.282,16537.4
1555,77.75,-12.95837,-0.2996581,0.007730569,0,0,0,0,0,12.95837,58.90167,0.2996581,0,88.92028,-12.95837,3177.135,16622
1560,78.0,-13.00037,-0.301952,0.007789747,0,0,0,0,0,13.00037,59.09258,0.301952,0,89.38588,-13.00037,3186.584,16695.1
1565,78.25,-13.04197,-0.3043766,0.007852296,0,0,0,0,0,13.04197,59.28167,0.3043766,0,89.84919,-13.04197,3197.324,16775.5
1570,78.5,-13.0833,-0.3066581,0.007911155,0,0,0,0,0,13.0833,59.46955,0.3066581,0,90.31167,-13.0833,3206.427,16847.8
1575,78.75,-13.1253,-0.3096621,0.007988651,0,0,0,0,0,13.1253,59.66046,0.3096621,0,90.78381,-13.1253,3222.585,16958.4
1580,79.0,-13.1669,-0.3120545,0.008050372,0,0,0,0,0,13.1669,59.84955,0.3120545,0,91.25366,-13.1669,3232.26,17035.5
1585,79.25,-13.2085,-0.3147147,0.008118998,0,0,0,0,0,13.2085,60.03864,0.3147147,0,91.72572,-13.2085,3244.462,17126.6
1590,79.5,-13.24997,-0.3173492,0.008186964,0,0,0,0,0,13.24997,60.22712,0.3173492,0,92.1985,-13.24997,3256.191,17215.9
1595,79.75,-13.29197,-0.3201204,0.008258454,0,0,0,0,0,13.29197,60.41803,0.3201204,0,92.67965,-13.29197,3268.859,17311.4
1600,80.0,-13.33343,-0.323042,0.008333826,0,0,0,0,0,13.33343,60.60652,0.323042,0,93.15698,-13.33343,3282.984,17415
1605,80.25,-13.37503,-0.3257732,0.008404285,0,0,0,0,0,13.37503,60.79561,0.3257731,0,93.63814,-13.37503,3294.849,17507.6
1610,80.50001,-13.41703,-0.3292145,0.008493063,0,0,0,0,0,13.41703,60.98652,0.3292145,0,94.12629,-13.41703,3313.44,17637.2
1615,80.75001,-13.45863,-0.332121,0.008568046,0,0,0,0,0,13.45863,61.17561,0.332121,0,94.61215,-13.45863,3326.492,17737.9
1620,81.00001,-13.5001,-0.3347748,0.008636508,0,0,0,0,0,13.5001,61.36409,0.3347748,0,95.09881,-13.5001,3336.794,17824.7
1625,81.25001,-13.54183,-0.338119,0.008722783,0,0,0,0,0,13.54183,61.55379,0.338119,0,95.591,-13.54183,3353.58,17947.3
1630,81.50001,-13.5837,-0.3407737,0.008791267,0,0,0,0,0,13.5837,61.74409,0.3407736,0,96.08722,-13.5837,3363.179,18032.5
1635,81.75001,-13.62517,-0.3433392,0.008857451,0,0,0,0,0,13.62517,61.93258,0.3433392,0,96.58112,-13.62517,3371.804,18112.9
1640,82.00001,-13.66663,-0.346254,0.008932648,0,0,0,0,0,13.66663,62.12106,0.346254,0,97.07749,-13.66663,3383.592,18211.3
1645,82.25001,-13.70863,-0.3497596,0.009023084,0,0,0,0,0,13.70863,62.31197,0.3497595,0,97.58276,-13.70863,3400.623,18339.3
1650,82.50001,-13.74997,-0.3528158,0.009101929,0,0,0,0,0,13.74997,62.49985,0.3528158,0,98.08252,-13.74997,3413.237,18443.9
1655,82.75001,-13.79183,-0.3564106,0.009194667,0,0,0,0,0,13.79183,62.69015,0.3564106,0,98.59128,-13.79183,3430.517,18575.3
1660,83.00001,-13.8337,-0.3595034,0.009274456,0,0,0,0,0,13.8337,62.88046,0.3595034,0,99.10265,-13.8337,3442.636,18679.8
1665,83.25001,-13.87503,-0.3629064,0.009362245,0,0,0,0,0,13.87503,63.06833,0.3629064,0,99.61008,-13.87503,3457.633,18800.4
1670,83.50001,-13.9169,-0.3661772,0.009446626,0,0,0,0,0,13.9169,63.25863,0.3661772,0,100.1267,-13.9169,3470.819,18912.8
1675,83.75001,-13.95863,-0.3695526,0.009533705,0,0,0,0,0,13.95863,63.44833,0.3695526,0,100.6443,-13.95863,3484.728,19030.1
1680,84.00001,-14.0001,-0.3732631,0.009629427,0,0,0,0,0,14.0001,63.63681,0.3732631,0,101.1613,-14.0001,3501.567,19164.2
1685,84.25001,-14.04183,-0.3767779,0.009720103,0,0,0,0,0,14.04183,63.82651,0.3767779,0,101.6844,-14.04183,3516.1,19287.2
1690,84.50001,-14.08357,-0.3807502,0.009822581,0,0,0,0,0,14.08356,64.0162,0.3807502,0,102.2102,-14.08357,3534.537,19432.8
1695,84.75001,-14.1253,-0.3845503,0.009920616,0,0,0,0,0,14.1253,64.2059,0.3845503,0,102.7387,-14.1253,3550.995,19568.7
1700,85.00001,-14.16677,-0.3884109,0.01002021,0,0,0,0,0,14.16677,64.39439,0.3884109,0,103.2667,-14.16677,3567.757,19707.3
1705,85.25001,-14.2085,-0.3927536,0.01013224,0,0,0,0,0,14.2085,64.58408,0.3927536,0,103.8009,-14.2085,3588.427,19869.1
1710,85.50001,-14.2501,-0.3976683,0.01025903,0,0,0,0,0,14.2501,64.77318,0.3976683,0,104.3362,-14.2501,3613.931,20059.1
1715,85.75001,-14.2917,-0.4025759,0.01038564,0,0,0,0,0,14.2917,64.96227,0.4025759,0,104.8745,-14.2917,3638.892,20247.5
1720,86.00001,-14.33356,-0.4076691,0.01051703,0,0,0,0,0,14.33356,65.15257,0.4076691,0,105.4191,-14.33356,3664.917,20443.8
1725,86.25001,-14.3753,-0.4138602,0.01067675,0,0,0,0,0,14.3753,65.34226,0.4138602,0,105.9649,-14.3753,3700.32,20694
1730,86.50001,-14.41676,-0.419134,0.01081281,0,0,0,0,0,14.41676,65.53075,0.4191341,0,106.5102,-14.41676,3727.093,20897.4
1735,86.75001,-14.45863,-0.425141,0.01096777,0,0,0,0,0,14.45863,65.72105,0.425141,0,107.0639,-14.45863,3759.637,21135.5
1740,87.00001,-14.50036,-0.4314823,0.01113136,0,0,0,0,0,14.50037,65.91075,0.4314823,0,107.6188,-14.50036,3794.598,21389
1745,87.25001,-14.5421,-0.4375958,0.01128908,0,0,0,0,0,14.5421,66.10045,0.4375958,0,108.1768,-14.5421,3826.947,21629.8
1750,87.50001,-14.58343,-0.4436622,0.01144558,0,0,0,0,0,14.58343,66.28832,0.4436622,0,108.7326,-14.58343,3858.498,21867.5
1755,87.75001,-14.62543,-0.45101,0.01163514,0,0,0,0,0,14.62543,66.47923,0.45101,0,109.3005,-14.62543,3900.188,22165.9
1760,88.00001,-14.66676,-0.4560782,0.01176589,0,0,0,0,0,14.66676,66.66711,0.4560782,0,109.8625,-14.66676,3921.911,22351.8
1765,88.25001,-14.70823,-0.4627781,0.01193873,0,0,0,0,0,14.70823,66.85559,0.4627781,0,110.4296,-14.70823,3957.022,22616.2
1770,88.50001,-14.75036,-0.46878,0.01209357,0,0,0,0,0,14.75036,67.04711,0.46878,0,111.0091,-14.75036,3985.181,22844.1
1775,88.75001,-14.79183,-0.4753034,0.01226186,0,0,0,0,0,14.79183,67.2356,0.4753034,0,111.5828,-14.79183,4017.525,23097
1780,89.00001,-14.83343,-0.4812938,0.0124164,0,0,0,0,0,14.83343,67.42468,0.4812938,0,112.1615,-14.83343,4044.682,23322.5
1785,89.25001,-14.8753,-0.4878628,0.01258587,0,0,0,0,0,14.8753,67.61499,0.4878628,0,112.7474,-14.8753,4075.935,23574.3
1790,89.50001,-14.9169,-0.4945296,0.01275786,0,0,0,0,0,14.9169,67.80408,0.4945296,0,113.333,-14.9169,4107.51,23829.8
1795,89.75001,-14.9585,-0.5011192,0.01292785,0,0,0,0,0,14.9585,67.99317,0.5011192,0,113.9221,-14.9585,4137.796,24080.2
1800,90.00001,-15.0001,-0.5081531,0.01310931,0,0,0,0,0,15.0001,68.18226,0.508153,0,114.5146,-15.0001,4171.088,24350.5
1803,90.106,-15.0181,-0.5116177,0.0131987,0,0,0,0,0,15.0181,68.26408,0.5116177,0,114.7721,-15.0181,4188.728,24487.1