File: GFBaking/em/1_g13_2.csv
,Time sec,Extension mm,Load kgf,Compressive stress MPa,Cycle Count ,Total Cycle Count ,Repetitions Count ,Marked Data ,PIP Count ,Compressive extension mm,Compressive strain %,Compressive load kgf,Displacement (Strain 1) mm,True strain %,Corrected Position mm,True stress Pa,Elastic Modulus
0,0.0,-0.000266666,-0.02506711,0.0006622408,0,0,0,0,0,0.0,0.0,0.02506711,0,0.0,-0.000266666,662.2408,inf
5,0.25,-0.03693324,-0.02779611,0.0007343376,0,0,0,0,0,0.03666658,0.160048,0.02779611,0,0.1601762,-0.03693324,733.1623,544905
10,0.5,-0.0823998,-0.03056347,0.0008074476,0,0,0,0,0,0.08213313,0.3585076,0.03056347,0,0.3591517,-0.0823998,804.5528,267480
15,0.7500001,-0.1246664,-0.03297283,0.0008710999,0,0,0,0,0,0.1243997,0.5429993,0.03297283,0,0.5444789,-0.1246664,866.3698,190522
20,1.0,-0.1667996,-0.03493272,0.0009228776,0,0,0,0,0,0.1665329,0.7269091,0.03493272,0,0.7295639,-0.1667996,916.1691,150779
25,1.25,-0.2087995,-0.03678325,0.0009717662,0,0,0,0,0,0.2085328,0.9102368,0.03678325,0,0.9144048,-0.2087995,962.9209,126789
30,1.5,-0.2499994,-0.03850474,0.001017246,0,0,0,0,0,0.2497327,1.090073,0.03850474,0,1.096057,-0.2499994,1006.157,110827
35,1.75,-0.291866,-0.04026265,0.001063687,0,0,0,0,0,0.2915993,1.272818,0.04026265,0,1.280988,-0.291866,1050.149,99248.3
40,2.0,-0.3335992,-0.04172372,0.001102287,0,0,0,0,0,0.3333325,1.454982,0.04172372,0,1.465671,-0.3335992,1086.249,89973.1
45,2.25,-0.3751991,-0.04322703,0.001142003,0,0,0,0,0,0.3749324,1.636564,0.04322703,0,1.650103,-0.3751991,1123.313,82872.4
50,2.5,-0.4169323,-0.04463426,0.00117918,0,0,0,0,0,0.4166656,1.818728,0.04463426,0,1.83547,-0.4169323,1157.734,76999.5
55,2.75,-0.4583989,-0.04594689,0.001213858,0,0,0,0,0,0.4581322,1.999727,0.04594689,0,2.019993,-0.4583989,1189.584,72089.6
60,3.0,-0.5003988,-0.04776135,0.001261794,0,0,0,0,0,0.5001321,2.183055,0.04776135,0,2.207236,-0.5003988,1234.248,68643.5
65,3.25,-0.541732,-0.04878472,0.00128883,0,0,0,0,0,0.5414653,2.363473,0.04878472,0,2.391851,-0.541732,1258.369,64762
70,3.5,-0.5833319,-0.05036705,0.001330633,0,0,0,0,0,0.5830653,2.545055,0.05036705,0,2.578002,-0.5833319,1296.768,62092.1
75,3.75,-0.6253318,-0.05153632,0.001361523,0,0,0,0,0,0.6250652,2.728383,0.05153632,0,2.766294,-0.6253318,1324.376,59264.6
80,4.0,-0.666665,-0.05301109,0.001400485,0,0,0,0,0,0.6663984,2.9088,0.05301109,0,2.951945,-0.666665,1359.748,57179.5
85,4.25,-0.7083983,-0.05423652,0.001432859,0,0,0,0,0,0.7081317,3.090964,0.05423652,0,3.139742,-0.7083983,1388.57,55053.5
90,4.5,-0.7503981,-0.05544759,0.001464854,0,0,0,0,0,0.7501314,3.274292,0.05544759,0,3.329096,-0.7503981,1416.891,53131.6
95,4.75,-0.7917314,-0.05666164,0.001496928,0,0,0,0,0,0.7914647,3.45471,0.05666164,0,3.515796,-0.7917314,1445.213,51459.4
100,5.0,-0.8334646,-0.05773027,0.00152516,0,0,0,0,0,0.833198,3.636873,0.05773028,0,3.704656,-0.8334646,1469.692,49803.8
105,5.25,-0.8753312,-0.05911202,0.001561664,0,0,0,0,0,0.8750645,3.819619,0.05911202,0,3.894479,-0.8753312,1502.014,48556
110,5.5,-0.9169311,-0.0603287,0.001593807,0,0,0,0,0,0.9166644,4.001201,0.0603287,0,4.08345,-0.9169311,1530.035,47306.5
115,5.75,-0.9583976,-0.06145424,0.001623542,0,0,0,0,0,0.958131,4.1822,0.06145424,0,4.272172,-0.9583976,1555.642,46103.5
120,6.0,-1.000264,-0.06268925,0.00165617,0,0,0,0,0,0.9999976,4.364946,0.06268925,0,4.463076,-1.000264,1583.879,45061.1
125,6.25,-1.041864,-0.06421188,0.001696395,0,0,0,0,0,1.041598,4.546528,0.06421188,0,4.653127,-1.041864,1619.268,44312.1
130,6.5,-1.083197,-0.06527087,0.001724373,0,0,0,0,0,1.082931,4.726946,0.06527087,0,4.842317,-1.083197,1642.863,43323.7
135,6.75,-1.125331,-0.06681884,0.001765268,0,0,0,0,0,1.125064,4.910855,0.06681884,0,5.035537,-1.125331,1678.578,42690.3
140,7.0,-1.166664,-0.06782885,0.001791951,0,0,0,0,0,1.166397,5.091273,0.06782886,0,5.225453,-1.166664,1700.718,41799.9
145,7.25,-1.20853,-0.06923223,0.001829027,0,0,0,0,0,1.208264,5.274019,0.06923223,0,5.418188,-1.20853,1732.563,41186.4
150,7.5,-1.250264,-0.07035554,0.001858703,0,0,0,0,0,1.249997,5.456183,0.07035554,0,5.610679,-1.250264,1757.289,40457.3
155,7.75,-1.291864,-0.07182116,0.001897423,0,0,0,0,0,1.291597,5.637764,0.07182116,0,5.802924,-1.291864,1790.451,39969.9
160,8.0,-1.333463,-0.07288357,0.00192549,0,0,0,0,0,1.333197,5.819347,0.07288357,0,5.995541,-1.333463,1813.439,39295.5
165,8.25,-1.375063,-0.07416583,0.001959366,0,0,0,0,0,1.374797,6.000928,0.07416583,0,6.188528,-1.375063,1841.786,38776.9
170,8.5,-1.41693,-0.07545617,0.001993455,0,0,0,0,0,1.416663,6.183674,0.07545617,0,6.383129,-1.41693,1870.187,38285.6
175,8.75,-1.45853,-0.07643481,0.002019309,0,0,0,0,0,1.458263,6.365255,0.07643481,0,6.576867,-1.45853,1890.775,37675.8
180,9.0,-1.499996,-0.07768116,0.002052237,0,0,0,0,0,1.49973,6.546255,0.07768115,0,6.770358,-1.499996,1917.892,37231.4
185,9.25,-1.541996,-0.07874423,0.002080321,0,0,0,0,0,1.54173,6.729583,0.07874423,0,6.96672,-1.541996,1940.324,36712.8
190,9.5,-1.583463,-0.07991061,0.002111136,0,0,0,0,0,1.583196,6.910583,0.07991061,0,7.160968,-1.583463,1965.244,36280.8
195,9.75,-1.625196,-0.08098537,0.002139529,0,0,0,0,0,1.624929,7.092747,0.08098537,0,7.356847,-1.625196,1987.778,35824.4
200,10.0,-1.666929,-0.08201236,0.002166661,0,0,0,0,0,1.666663,7.27491,0.08201236,0,7.55311,-1.666929,2009.039,35370.3
205,10.25,-1.708396,-0.08331441,0.00220106,0,0,0,0,0,1.708129,7.45591,0.0833144,0,7.748501,-1.708396,2036.951,35059.6
210,10.5,-1.749996,-0.08410852,0.002222039,0,0,0,0,0,1.749729,7.637492,0.08410852,0,7.944905,-1.749996,2052.331,34552.3
215,10.75,-1.791862,-0.08554692,0.00226004,0,0,0,0,0,1.791596,7.820238,0.08554692,0,8.142958,-1.791862,2083.299,34321.9
220,11.0,-1.833462,-0.08613836,0.002275665,0,0,0,0,0,1.833196,8.00182,0.08613836,0,8.340139,-1.833462,2093.57,33775
225,11.25,-1.875062,-0.08702821,0.002299174,0,0,0,0,0,1.874795,8.183401,0.08702821,0,8.537709,-1.875062,2111.023,33366.7
230,11.5,-1.916929,-0.08786961,0.002321402,0,0,0,0,0,1.916662,8.366147,0.08786961,0,8.736941,-1.916929,2127.19,32953.4
235,11.75,-1.958529,-0.08904767,0.002352525,0,0,0,0,0,1.958262,8.547729,0.08904768,0,8.935297,-1.958529,2151.438,32685.8
240,12.0,-1.999862,-0.09008006,0.002379799,0,0,0,0,0,1.999595,8.728147,0.09008006,0,9.132774,-1.999862,2172.087,32381.3
245,12.25,-2.041995,-0.09129337,0.002411854,0,0,0,0,0,2.041728,8.912057,0.09129336,0,9.334474,-2.041995,2196.908,32140.2
250,12.5,-2.083595,-0.09270173,0.002449061,0,0,0,0,0,2.083328,9.093638,0.09270173,0,9.53402,-2.083595,2226.352,31984.3
255,12.75,-2.125195,-0.09378091,0.002477571,0,0,0,0,0,2.124928,9.27522,0.09378091,0,9.733966,-2.125195,2247.771,31723.2
260,13.0,-2.167061,-0.09488741,0.002506803,0,0,0,0,0,2.166795,9.457966,0.09488741,0,9.935598,-2.167061,2269.711,31477.3
265,13.25,-2.208395,-0.0960217,0.00253677,0,0,0,0,0,2.208128,9.638384,0.0960217,0,10.13506,-2.208395,2292.266,31257.4
270,13.5,-2.250261,-0.09714483,0.002566442,0,0,0,0,0,2.249994,9.821129,0.09714483,0,10.3375,-2.250261,2314.388,31034.6
275,13.75,-2.291594,-0.09848066,0.002601733,0,0,0,0,0,2.291328,10.00155,0.09848066,0,10.53777,-2.291594,2341.519,30893.8
280,14.0,-2.333194,-0.09962716,0.002632022,0,0,0,0,0,2.332928,10.18313,0.09962716,0,10.73974,-2.333194,2364.0,30696.1
285,14.25,-2.375328,-0.1009004,0.002665658,0,0,0,0,0,2.375061,10.36704,0.1009004,0,10.94471,-2.375328,2389.308,30536.9
290,14.5,-2.416527,-0.1018927,0.002691874,0,0,0,0,0,2.416261,10.54687,0.1018927,0,11.14554,-2.416527,2407.965,30311.4
295,14.75,-2.458661,-0.1030018,0.002721177,0,0,0,0,0,2.458394,10.73078,0.1030018,0,11.35135,-2.458661,2429.173,30116.2
300,15.0,-2.50026,-0.1043987,0.002758079,0,0,0,0,0,2.499994,10.91236,0.1043987,0,11.55496,-2.50026,2457.107,30016.7
305,15.25,-2.541727,-0.1050424,0.002775086,0,0,0,0,0,2.541461,11.09337,0.1050424,0,11.75834,-2.541727,2467.235,29709
310,15.5,-2.58346,-0.1062649,0.002807383,0,0,0,0,0,2.583194,11.27553,0.1062649,0,11.96345,-2.58346,2490.835,29569.2
315,15.75,-2.625327,-0.1073507,0.002836069,0,0,0,0,0,2.62506,11.45827,0.1073507,0,12.16963,-2.625327,2511.104,29395
320,16.0,-2.666927,-0.1082729,0.002860432,0,0,0,0,0,2.66666,11.63986,0.1082729,0,12.37492,-2.666927,2527.482,29185
325,16.25,-2.708393,-0.1097418,0.002899237,0,0,0,0,0,2.708127,11.82086,0.1097418,0,12.57997,-2.708393,2556.522,29128
330,16.5,-2.750393,-0.1104356,0.002917567,0,0,0,0,0,2.750126,12.00418,0.1104356,0,12.78809,-2.750393,2567.337,28864.5
335,16.75,-2.791726,-0.1119583,0.002957793,0,0,0,0,0,2.79146,12.1846,0.1119583,0,12.99333,-2.791726,2597.398,28829.2
340,17.0,-2.833326,-0.1128999,0.002982672,0,0,0,0,0,2.83306,12.36618,0.1128999,0,13.20032,-2.833326,2613.829,28644.8
345,17.25,-2.875326,-0.1146128,0.003027923,0,0,0,0,0,2.87506,12.54951,0.1146128,0,13.40974,-2.875326,2647.934,28654.5
350,17.5,-2.916659,-0.1154666,0.003050479,0,0,0,0,0,2.916393,12.72993,0.1154666,0,13.61626,-2.916659,2662.155,28458.9
355,17.75,-2.958526,-0.1171742,0.003095592,0,0,0,0,0,2.958259,12.91267,0.1171742,0,13.82588,-2.958526,2695.868,28471
360,18.0,-3.000259,-0.1179186,0.003115258,0,0,0,0,0,2.999993,13.09484,0.1179186,0,14.03528,-3.000259,2707.32,28253.3
365,18.25,-3.041726,-0.1196445,0.003160855,0,0,0,0,0,3.041459,13.27584,0.1196445,0,14.24377,-3.041726,2741.225,28276
370,18.5,-3.083459,-0.1206489,0.00318739,0,0,0,0,0,3.083192,13.458,0.1206489,0,14.45404,-3.083459,2758.431,28127.4
375,18.75,-3.125059,-0.1217097,0.003215414,0,0,0,0,0,3.124792,13.63958,0.1217097,0,14.66408,-3.125059,2776.845,27997
380,19.0,-3.167059,-0.1230161,0.003249928,0,0,0,0,0,3.166792,13.82291,0.1230161,0,14.87658,-3.167059,2800.693,27922.2
385,19.25,-3.208392,-0.1240324,0.003276778,0,0,0,0,0,3.208126,14.00333,0.1240324,0,15.08616,-3.208392,2817.92,27790.2
390,19.5,-3.250125,-0.1247398,0.003295465,0,0,0,0,0,3.249859,14.18549,0.1247398,0,15.29821,-3.250125,2827.987,27589.8
395,19.75,-3.292125,-0.1255214,0.003316115,0,0,0,0,0,3.291859,14.36882,0.1255214,0,15.51207,-3.292125,2839.629,27408.4
400,20.0,-3.333325,-0.1271887,0.003360162,0,0,0,0,0,3.333059,14.54866,0.1271887,0,15.72231,-3.333325,2871.303,27429.2
405,20.25,-3.375059,-0.1273442,0.00336427,0,0,0,0,0,3.374792,14.73082,0.1273442,0,15.93571,-3.375059,2868.685,27123.1
410,20.5,-3.417058,-0.1287214,0.003400654,0,0,0,0,0,3.416791,14.91415,0.1287214,0,16.15094,-3.417058,2893.475,27079.4
415,20.75,-3.458392,-0.1298355,0.003430088,0,0,0,0,0,3.458125,15.09457,0.1298355,0,16.36321,-3.458392,2912.331,26987.3
420,21.0,-3.500125,-0.1308757,0.003457567,0,0,0,0,0,3.499858,15.27673,0.1308757,0,16.57799,-3.500125,2929.364,26879.2
425,21.25,-3.541991,-0.1319679,0.003486422,0,0,0,0,0,3.541724,15.45948,0.1319679,0,16.79392,-3.541991,2947.44,26783.1
430,21.5,-3.583591,-0.1331361,0.003517284,0,0,0,0,0,3.583324,15.64106,0.1331361,0,17.00894,-3.583591,2967.143,26706.5
435,21.75,-3.624924,-0.1342444,0.003546565,0,0,0,0,0,3.624658,15.82148,0.1342444,0,17.22303,-3.624924,2985.446,26621.7
440,22.0,-3.666924,-0.1353835,0.003576658,0,0,0,0,0,3.666658,16.0048,0.1353835,0,17.44106,-3.666924,3004.221,26540.1
445,22.25,-3.708524,-0.1361143,0.003595965,0,0,0,0,0,3.708258,16.18638,0.1361143,0,17.65747,-3.708524,3013.908,26384
450,22.5,-3.749991,-0.1371023,0.003622067,0,0,0,0,0,3.749724,16.36738,0.1371023,0,17.87366,-3.749991,3029.23,26281.7
455,22.75,-3.791991,-0.138093,0.00364824,0,0,0,0,0,3.791724,16.55071,0.138093,0,18.09311,-3.791991,3044.43,26178.3
460,23.0,-3.833324,-0.1389302,0.003670358,0,0,0,0,0,3.833057,16.73113,0.1389302,0,18.30954,-3.833324,3056.266,26053.1
465,23.25,-3.875057,-0.1398045,0.003693456,0,0,0,0,0,3.874791,16.91329,0.1398045,0,18.52855,-3.875057,3068.771,25934.6
470,23.5,-3.917057,-0.1409295,0.003723175,0,0,0,0,0,3.916791,17.09662,0.1409295,0,18.74944,-3.917057,3086.638,25863
475,23.75,-3.958391,-0.1421911,0.003756508,0,0,0,0,0,3.958124,17.27704,0.1421911,0,18.9673,-3.958391,3107.494,25822
480,24.0,-4.000124,-0.1426575,0.003768829,0,0,0,0,0,3.999857,17.4592,0.1426575,0,19.18775,-4.000124,3110.821,25636.4
485,24.25,-4.04159,-0.1439285,0.003802406,0,0,0,0,0,4.041324,17.6402,0.1439285,0,19.40728,-4.04159,3131.654,25599.4
490,24.5,-4.08359,-0.1446234,0.003820765,0,0,0,0,0,4.083323,17.82353,0.1446234,0,19.63012,-4.08359,3139.77,25458.5
495,24.75,-4.125323,-0.1461503,0.003861103,0,0,0,0,0,4.125056,18.00569,0.1461503,0,19.85204,-4.125323,3165.884,25467
500,25.0,-4.166657,-0.1464292,0.003868472,0,0,0,0,0,4.16639,18.18611,0.1464292,0,20.07232,-4.166657,3164.947,25262.4
505,25.25,-4.208656,-0.1478515,0.003906047,0,0,0,0,0,4.20839,18.36944,0.1478515,0,20.29665,-4.208656,3188.528,25253.2
510,25.5,-4.250123,-0.1483495,0.003919204,0,0,0,0,0,4.249856,18.55044,0.1483495,0,20.51863,-4.250123,3192.174,25091.1
515,25.75,-4.291723,-0.1494853,0.003949211,0,0,0,0,0,4.291456,18.73202,0.1494853,0,20.74181,-4.291723,3209.444,25038.1
520,26.0,-4.33359,-0.1503,0.003970734,0,0,0,0,0,4.333323,18.91477,0.1503,0,20.96693,-4.33359,3219.679,24931.3
525,26.25,-4.375056,-0.150924,0.003987218,0,0,0,0,0,4.374789,19.09577,0.150924,0,21.1904,-4.375056,3225.828,24797.5
530,26.5,-4.416656,-0.1519305,0.004013808,0,0,0,0,0,4.416389,19.27735,0.1519305,0,21.4151,-4.416656,3240.052,24727.8
535,26.75,-4.458522,-0.1524148,0.004026604,0,0,0,0,0,4.458256,19.46009,0.1524148,0,21.64174,-4.458522,3243.023,24573.6
540,27.0,-4.500256,-0.1531354,0.004045642,0,0,0,0,0,4.499989,19.64226,0.1531354,0,21.86818,-4.500256,3250.987,24460.8
545,27.25,-4.541722,-0.1537115,0.00406086,0,0,0,0,0,4.541455,19.82326,0.1537115,0,22.09367,-4.541722,3255.866,24328.7
550,27.5,-4.583589,-0.1545637,0.004083375,0,0,0,0,0,4.583323,20.006,0.1545637,0,22.32186,-4.583589,3266.454,24240.1
555,27.75,-4.625455,-0.1550517,0.004096266,0,0,0,0,0,4.625189,20.18875,0.1550516,0,22.55057,-4.625455,3269.281,24096.5
560,28.0,-4.666655,-0.1554921,0.004107901,0,0,0,0,0,4.666389,20.36859,0.1554921,0,22.77615,-4.666655,3271.18,23951.6
565,28.25,-4.708522,-0.1560876,0.004123635,0,0,0,0,0,4.708256,20.55133,0.1560876,0,23.00591,-4.708522,3276.173,23829.5
570,28.5,-4.750255,-0.156987,0.004147395,0,0,0,0,0,4.749989,20.7335,0.156987,0,23.23545,-4.750255,3287.496,23756.3
575,28.75,-4.791722,-0.1576523,0.004164972,0,0,0,0,0,4.791455,20.9145,0.1576523,0,23.46406,-4.791722,3293.889,23650.5
580,29.0,-4.833588,-0.1583041,0.004182191,0,0,0,0,0,4.833322,21.09724,0.1583041,0,23.6954,-4.833588,3299.864,23542.6
585,29.25,-4.875055,-0.1593597,0.00421008,0,0,0,0,0,4.874789,21.27824,0.1593597,0,23.92506,-4.875055,3314.249,23498
590,29.5,-4.916921,-0.1598064,0.004221881,0,0,0,0,0,4.916655,21.46099,0.1598064,0,24.15747,-4.916921,3315.824,23363.2
595,29.75,-4.958255,-0.1608032,0.004248215,0,0,0,0,0,4.957988,21.64141,0.1608032,0,24.38745,-4.958255,3328.841,23312.9
600,30.0,-5.000121,-0.1612287,0.004259455,0,0,0,0,0,4.999854,21.82415,0.1612287,0,24.62094,-5.000121,3329.865,23178.9
605,30.25,-5.041988,-0.1630746,0.004308222,0,0,0,0,0,5.041721,22.0069,0.1630746,0,24.85498,-5.041988,3360.116,23249.6
610,30.5,-5.083187,-0.1624372,0.004291384,0,0,0,0,0,5.082921,22.18673,0.1624372,0,25.08582,-5.083187,3339.266,22971
615,30.75,-5.125321,-0.1638944,0.00432988,0,0,0,0,0,5.125054,22.37064,0.1638944,0,25.32245,-5.125321,3361.258,22986.5
620,31.0,-5.167054,-0.1642217,0.004338526,0,0,0,0,0,5.166788,22.5528,0.1642217,0,25.55738,-5.167054,3360.067,22846.4
625,31.25,-5.208388,-0.1654907,0.004372052,0,0,0,0,0,5.208121,22.73322,0.1654907,0,25.79061,-5.208388,3378.144,22840.2
630,31.5,-5.250254,-0.1660581,0.004387041,0,0,0,0,0,5.249987,22.91597,0.1660581,0,26.0274,-5.250254,3381.708,22735.7
635,31.75,-5.291854,-0.166813,0.004406986,0,0,0,0,0,5.291587,23.09755,0.166813,0,26.26325,-5.291854,3389.08,22659.5
640,32.0,-5.333587,-0.1668309,0.004407458,0,0,0,0,0,5.333321,23.27971,0.1668309,0,26.5004,-5.333587,3381.414,22484.6
645,32.25,-5.37492,-0.1683201,0.004446801,0,0,0,0,0,5.374653,23.46013,0.1683201,0,26.73584,-5.37492,3403.575,22510.9
650,32.5,-5.41692,-0.168496,0.004451448,0,0,0,0,0,5.416654,23.64346,0.168496,0,26.97565,-5.41692,3398.971,22359.7
655,32.75,-5.458387,-0.1693697,0.00447453,0,0,0,0,0,5.45812,23.82446,0.1693697,0,27.21298,-5.458387,3408.497,22304.9
660,33.0,-5.50012,-0.1696472,0.004481862,0,0,0,0,0,5.499854,24.00662,0.1696472,0,27.4524,-5.50012,3405.918,22171.9
665,33.25,-5.541986,-0.1698847,0.004488136,0,0,0,0,0,5.541719,24.18937,0.1698847,0,27.69316,-5.541986,3402.484,22035.2
670,33.5,-5.58332,-0.170217,0.004496915,0,0,0,0,0,5.583054,24.36979,0.170217,0,27.93144,-5.58332,3401.027,21914.8
675,33.75,-5.625186,-0.1699603,0.004490134,0,0,0,0,0,5.62492,24.55253,0.1699603,0,28.17336,-5.625186,3387.692,21718.9
680,34.0,-5.66692,-0.1703998,0.004501745,0,0,0,0,0,5.666653,24.7347,0.1703998,0,28.41509,-5.66692,3388.252,21614.7
685,34.25,-5.708119,-0.1703448,0.00450029,0,0,0,0,0,5.707853,24.91453,0.1703448,0,28.65432,-5.708119,3379.064,21451.8
690,34.5,-5.750253,-0.170292,0.004498895,0,0,0,0,0,5.749986,25.09844,0.170292,0,28.89955,-5.750253,3369.743,21288
695,34.75,-5.791853,-0.1710117,0.00451791,0,0,0,0,0,5.791586,25.28002,0.1710117,0,29.14227,-5.791853,3375.781,21224.4
700,35.0,-5.833719,-0.1715321,0.004531659,0,0,0,0,0,5.833453,25.46277,0.1715322,0,29.38714,-5.833719,3377.773,21136.2
705,35.25,-5.875052,-0.1721025,0.004546728,0,0,0,0,0,5.874785,25.64319,0.1721025,0,29.62949,-5.875052,3380.802,21057.3
710,35.5,-5.916785,-0.1727438,0.004563669,0,0,0,0,0,5.916519,25.82535,0.1727438,0,29.87477,-5.916785,3385.086,20986.7
715,35.75,-5.958652,-0.1735332,0.004584524,0,0,0,0,0,5.958386,26.0081,0.1735332,0,30.12145,-5.958652,3392.177,20934.4
720,36.0,-5.999985,-0.1739747,0.004596189,0,0,0,0,0,5.999718,26.18851,0.1739747,0,30.36558,-5.999985,3392.516,20843.1
725,36.25,-6.041585,-0.1747835,0.004617556,0,0,0,0,0,6.041318,26.3701,0.1747835,0,30.61189,-6.041585,3399.903,20795.8
730,36.5,-6.083719,-0.1756455,0.004640327,0,0,0,0,0,6.083452,26.554,0.1756455,0,30.86198,-6.083719,3408.135,20753.6
735,36.75,-6.125052,-0.1766339,0.004666441,0,0,0,0,0,6.124785,26.73442,0.1766339,0,31.10793,-6.125052,3418.895,20729.6
740,37.0,-6.166918,-0.1775624,0.00469097,0,0,0,0,0,6.166651,26.91717,0.1775624,0,31.35767,-6.166918,3428.294,20697.1
745,37.25,-6.208652,-0.1789704,0.004728169,0,0,0,0,0,6.208385,27.09933,0.1789704,0,31.60724,-6.208652,3446.866,20721
750,37.5,-6.250252,-0.1794877,0.004741836,0,0,0,0,0,6.249985,27.28091,0.1794877,0,31.85663,-6.250252,3448.22,20642.5
755,37.75,-6.291585,-0.1806921,0.004773654,0,0,0,0,0,6.291318,27.46133,0.1806921,0,32.10504,-6.291585,3462.745,20644.5
760,38.0,-6.333584,-0.1812466,0.004788304,0,0,0,0,0,6.333318,27.64466,0.1812467,0,32.35809,-6.333584,3464.594,20570.6
765,38.25,-6.375318,-0.1825766,0.00482344,0,0,0,0,0,6.375051,27.82682,0.1825766,0,32.61017,-6.375318,3481.23,20585.8
770,38.5,-6.416651,-0.1829314,0.004832812,0,0,0,0,0,6.416385,28.00724,0.1829314,0,32.86047,-6.416651,3479.275,20493
775,38.75,-6.458784,-0.1843269,0.00486968,0,0,0,0,0,6.458518,28.19115,0.1843269,0,33.11625,-6.458784,3496.861,20514.6
780,39.0,-6.500251,-0.1850738,0.004889414,0,0,0,0,0,6.499984,28.37215,0.1850739,0,33.36862,-6.500251,3502.182,20466.3
785,39.25,-6.541851,-0.1859368,0.004912211,0,0,0,0,0,6.541584,28.55373,0.1859368,0,33.62245,-6.541851,3509.591,20431
790,39.5,-6.583584,-0.1865087,0.004927321,0,0,0,0,0,6.583317,28.7359,0.1865087,0,33.87774,-6.583584,3511.412,20363.9
795,39.75,-6.625184,-0.1875244,0.004954154,0,0,0,0,0,6.624917,28.91748,0.1875244,0,34.13287,-6.625184,3521.538,20346.3
800,40.0,-6.667051,-0.187268,0.004947379,0,0,0,0,0,6.666784,29.10023,0.187268,0,34.39029,-6.667051,3507.681,20190.8
805,40.25,-6.708384,-0.1878703,0.004963293,0,0,0,0,0,6.708117,29.28064,0.1878703,0,34.64508,-6.708384,3510.009,20131
810,40.5,-6.750383,-0.1869818,0.004939819,0,0,0,0,0,6.750117,29.46397,0.1869818,0,34.90465,-6.750383,3484.352,19911.1
815,40.75,-6.791983,-0.1882315,0.004972835,0,0,0,0,0,6.791717,29.64555,0.1882315,0,35.16241,-6.791983,3498.61,19921.4
820,41.0,-6.833317,-0.1884712,0.004979167,0,0,0,0,0,6.83305,29.82597,0.1884712,0,35.41919,-6.833317,3494.082,19826.1
825,41.25,-6.875317,-0.1899734,0.005018854,0,0,0,0,0,6.87505,30.0093,0.1899734,0,35.68078,-6.875317,3512.731,19862.1
830,41.5,-6.916916,-0.1901786,0.005024274,0,0,0,0,0,6.91665,30.19088,0.1901786,0,35.94055,-6.916916,3507.402,19763.9
835,41.75,-6.958649,-0.1910242,0.005046614,0,0,0,0,0,6.958383,30.37304,0.1910242,0,36.20183,-6.958649,3513.804,19732.7
840,42.0,-7.000249,-0.1912054,0.005051402,0,0,0,0,0,6.999982,30.55462,0.1912054,0,36.46297,-7.000249,3507.965,19634.1
845,42.25,-7.04185,-0.1915245,0.005059832,0,0,0,0,0,7.041583,30.73621,0.1915245,0,36.72479,-7.04185,3504.632,19550.7
850,42.5,-7.08345,-0.1916599,0.005063409,0,0,0,0,0,7.083183,30.91779,0.1916599,0,36.98729,-7.08345,3497.915,19449.6
855,42.75,-7.125183,-0.1921348,0.005075954,0,0,0,0,0,7.124916,31.09995,0.1921348,0,37.25133,-7.125183,3497.335,19383.6
860,43.0,-7.167049,-0.1924456,0.005084166,0,0,0,0,0,7.166782,31.2827,0.1924456,0,37.51692,-7.167049,3493.702,19301.5
865,43.25,-7.208382,-0.1931635,0.005103131,0,0,0,0,0,7.208116,31.46311,0.1931635,0,37.77981,-7.208382,3497.527,19262.4
870,43.5,-7.250249,-0.1939625,0.00512424,0,0,0,0,0,7.249982,31.64586,0.1939625,0,38.04681,-7.250249,3502.63,19230.4
875,43.75,-7.291982,-0.1946464,0.005142307,0,0,0,0,0,7.291716,31.82803,0.1946464,0,38.31367,-7.291982,3505.613,19187.7
880,44.0,-7.333315,-0.1955044,0.005164974,0,0,0,0,0,7.333049,32.00844,0.1955044,0,38.57866,-7.333315,3511.747,19163.7
885,44.25,-7.375315,-0.1963291,0.005186763,0,0,0,0,0,7.375049,32.19177,0.1963291,0,38.84866,-7.375315,3517.052,19134.9
890,44.5,-7.417048,-0.1967448,0.005197744,0,0,0,0,0,7.416781,32.37393,0.1967448,0,39.11767,-7.417048,3515.03,19067.6
895,44.75,-7.458382,-0.1976168,0.005220783,0,0,0,0,0,7.458115,32.55435,0.1976168,0,39.38481,-7.458382,3521.191,19045.9
900,45.0,-7.500248,-0.1982314,0.005237021,0,0,0,0,0,7.499982,32.7371,0.1982314,0,39.65614,-7.500248,3522.572,18998.5
905,45.25,-7.541848,-0.1990974,0.005259899,0,0,0,0,0,7.541582,32.91868,0.1990974,0,39.92646,-7.541848,3528.41,18976.3
910,45.5,-7.583715,-0.1993017,0.005265296,0,0,0,0,0,7.583448,33.10143,0.1993017,0,40.19925,-7.583715,3522.408,18890.9
915,45.75,-7.625048,-0.2004274,0.005295035,0,0,0,0,0,7.624781,33.28184,0.2004274,0,40.4693,-7.625048,3532.75,18894.6
920,46.0,-7.666915,-0.201223,0.005316054,0,0,0,0,0,7.666648,33.46459,0.201223,0,40.74359,-7.666915,3537.058,18866
925,46.25,-7.708781,-0.2022019,0.005341915,0,0,0,0,0,7.708514,33.64733,0.2022019,0,41.01862,-7.708781,3544.503,18854.8
930,46.5,-7.749981,-0.2037575,0.005383011,0,0,0,0,0,7.749715,33.82717,0.2037575,0,41.29003,-7.749981,3562.091,18898.8
935,46.75,-7.791981,-0.2045455,0.005403829,0,0,0,0,0,7.791714,34.0105,0.2045455,0,41.56745,-7.791981,3565.96,18869.7
940,47.0,-7.833848,-0.2067201,0.00546128,0,0,0,0,0,7.833581,34.19324,0.2067201,0,41.84477,-7.833848,3593.891,18968.4
945,47.25,-7.875048,-0.2076064,0.005484696,0,0,0,0,0,7.874781,34.37308,0.2076064,0,42.11842,-7.875048,3599.437,18950
950,47.5,-7.916914,-0.2097469,0.005541245,0,0,0,0,0,7.916648,34.55583,0.2097469,0,42.39727,-7.916914,3626.422,19044.1
955,47.75,-7.958648,-0.2106015,0.00556382,0,0,0,0,0,7.958382,34.73799,0.2106015,0,42.67601,-7.958648,3631.061,19021.5
960,48.0,-8.000114,-0.2119069,0.005598308,0,0,0,0,0,7.999847,34.91899,0.2119069,0,42.95374,-8.000114,3643.435,19040.2
965,48.25,-8.04158,-0.2130027,0.005627259,0,0,0,0,0,8.041314,35.09999,0.2130027,0,43.23224,-8.04158,3652.091,19039.9
970,48.5,-8.083714,-0.2140506,0.005654943,0,0,0,0,0,8.083447,35.2839,0.2140506,0,43.51602,-8.083714,3659.659,19033.9
975,48.75,-8.125047,-0.2158095,0.005701411,0,0,0,0,0,8.124781,35.46432,0.2158095,0,43.79519,-8.125047,3679.444,19092.6
980,49.0,-8.166781,-0.2163893,0.005716728,0,0,0,0,0,8.166513,35.64648,0.2163893,0,44.07785,-8.166781,3678.916,19046.1
985,49.25,-8.208781,-0.21828,0.005766677,0,0,0,0,0,8.208514,35.82981,0.21828,0,44.36314,-8.208781,3700.488,19114.2
990,49.5,-8.24998,-0.2193265,0.005794325,0,0,0,0,0,8.249713,36.00964,0.2193265,0,44.64378,-8.24998,3707.809,19110
995,49.75,-8.291847,-0.2205423,0.005826444,0,0,0,0,0,8.29158,36.19239,0.2205423,0,44.92977,-8.291847,3717.715,19118.9
1000,50.0,-8.333713,-0.2214878,0.005851424,0,0,0,0,0,8.333447,36.37513,0.2214878,0,45.21658,-8.333713,3722.961,19104.4
1005,50.25,-8.37518,-0.2221076,0.005867797,0,0,0,0,0,8.374913,36.55614,0.2221076,0,45.50147,-8.37518,3722.757,19063
1010,50.5,-8.416913,-0.2226541,0.005882236,0,0,0,0,0,8.416646,36.7383,0.2226541,0,45.78901,-8.416913,3721.202,19015.1
1015,50.75,-8.45838,-0.2224885,0.00587786,0,0,0,0,0,8.458114,36.9193,0.2224885,0,46.07553,-8.45838,3707.796,18907.8
1020,51.0,-8.50038,-0.223723,0.005910474,0,0,0,0,0,8.500113,37.10263,0.223723,0,46.36658,-8.50038,3717.533,18918.8
1025,51.25,-8.541846,-0.2238479,0.005913775,0,0,0,0,0,8.541579,37.28363,0.2238479,0,46.65476,-8.541846,3708.905,18837.5
1030,51.5,-8.583579,-0.225411,0.005955068,0,0,0,0,0,8.583313,37.46579,0.225411,0,46.94564,-8.583579,3723.955,18876.8
1035,51.75,-8.625446,-0.2261082,0.005973488,0,0,0,0,0,8.625179,37.64854,0.2261082,0,47.23831,-8.625446,3724.557,18843.2
1040,52.0,-8.666646,-0.2275484,0.006011536,0,0,0,0,0,8.666379,37.82837,0.2275484,0,47.52714,-8.666646,3737.47,18873.1
1045,52.25,-8.708512,-0.2287887,0.006044303,0,0,0,0,0,8.708245,38.01112,0.2287887,0,47.82151,-8.708512,3746.796,18884.7
1050,52.5,-8.750379,-0.2305353,0.006090446,0,0,0,0,0,8.750112,38.19386,0.2305353,0,48.11675,-8.750379,3764.27,18937.9
1055,52.75,-8.791712,-0.2314876,0.006115606,0,0,0,0,0,8.791446,38.37428,0.2314876,0,48.40909,-8.791712,3768.786,18926.7
1060,53.0,-8.833446,-0.2328538,0.006151698,0,0,0,0,0,8.833179,38.55645,0.2328538,0,48.70513,-8.833446,3779.822,18948.4
1065,53.25,-8.875312,-0.2344695,0.006194383,0,0,0,0,0,8.875046,38.73919,0.2344695,0,49.00299,-8.875312,3794.729,18989.9
1070,53.5,-8.916912,-0.2359201,0.006232707,0,0,0,0,0,8.916645,38.92077,0.2359201,0,49.29984,-8.916912,3806.889,19018.3
1075,53.75,-8.958378,-0.2376481,0.006278359,0,0,0,0,0,8.958111,39.10177,0.2376481,0,49.5966,-8.958378,3823.41,19068.9
1080,54.0,-9.000378,-0.2390683,0.006315877,0,0,0,0,0,9.000112,39.2851,0.2390683,0,49.8981,-9.000378,3834.679,19093.3
1085,54.25,-9.041978,-0.2405836,0.006355911,0,0,0,0,0,9.041712,39.46668,0.2405836,0,50.19763,-9.041978,3847.444,19125.9
1090,54.5,-9.083444,-0.242076,0.006395338,0,0,0,0,0,9.083177,39.64768,0.242076,0,50.49707,-9.083444,3859.735,19156.7
1095,54.75,-9.125311,-0.2438667,0.006442644,0,0,0,0,0,9.125045,39.83043,0.2438667,0,50.80034,-9.125311,3876.511,19209.9
1100,55.0,-9.166778,-0.2453827,0.006482695,0,0,0,0,0,9.166512,40.01143,0.2453827,0,51.10161,-9.166778,3888.876,19241.9
1105,55.25,-9.208511,-0.2471691,0.00652989,0,0,0,0,0,9.208244,40.19359,0.2471691,0,51.40573,-9.208511,3905.293,19294.1
1110,55.5,-9.250244,-0.2489338,0.006576511,0,0,0,0,0,9.249978,40.37576,0.2489338,0,51.71079,-9.250244,3921.195,19344.2
1115,55.75,-9.291711,-0.2504937,0.006617723,0,0,0,0,0,9.291444,40.55676,0.2504937,0,52.01482,-9.291711,3933.79,19378.5
1120,56.0,-9.333577,-0.2522539,0.006664224,0,0,0,0,0,9.333311,40.7395,0.2522539,0,52.32272,-9.333577,3949.252,19427.2
1125,56.25,-9.375177,-0.2538027,0.00670514,0,0,0,0,0,9.374911,40.92108,0.2538027,0,52.62961,-9.375177,3961.324,19459.7
1130,56.5,-9.417044,-0.2548347,0.006732407,0,0,0,0,0,9.416778,41.10383,0.2548347,0,52.93941,-9.417044,3965.13,19452
1135,56.75,-9.458643,-0.2562956,0.006771001,0,0,0,0,0,9.458377,41.28541,0.2562956,0,53.24819,-9.458643,3975.566,19477.4
1140,57.0,-9.500111,-0.2576442,0.006806629,0,0,0,0,0,9.499844,41.46641,0.2576442,0,53.55694,-9.500111,3984.165,19494.5
1145,57.25,-9.541977,-0.2591599,0.006846672,0,0,0,0,0,9.54171,41.64915,0.2591599,0,53.86963,-9.541977,3995.091,19523.1
1150,57.5,-9.583577,-0.2600719,0.006870765,0,0,0,0,0,9.583309,41.83073,0.2600719,0,54.1813,-9.583577,3996.674,19506.8
1155,57.75,-9.625177,-0.261402,0.006905907,0,0,0,0,0,9.624909,42.01232,0.261402,0,54.49395,-9.625177,4004.575,19521.8
1160,58.0,-9.666909,-0.2628227,0.006943438,0,0,0,0,0,9.666643,42.19448,0.2628227,0,54.80859,-9.666909,4013.69,19543.1
1165,58.25,-9.708377,-0.264101,0.00697721,0,0,0,0,0,9.708109,42.37548,0.264101,0,55.1222,-9.708377,4020.584,19554.3
1170,58.5,-9.75011,-0.2653709,0.00701076,0,0,0,0,0,9.749844,42.55765,0.2653709,0,55.43883,-9.75011,4027.145,19564.2
1175,58.75,-9.791843,-0.2665757,0.007042587,0,0,0,0,0,9.791576,42.73981,0.2665757,0,55.75646,-9.791843,4032.599,19569.3
1180,59.0,-9.833709,-0.2673922,0.007064159,0,0,0,0,0,9.833443,42.92255,0.2673922,0,56.07612,-9.833709,4032.041,19545.7
1185,59.25,-9.875042,-0.2682635,0.007087177,0,0,0,0,0,9.874775,43.10297,0.2682635,0,56.3927,-9.875042,4032.393,19527.3
1190,59.5,-9.916909,-0.2692441,0.007113085,0,0,0,0,0,9.916643,43.28572,0.2692441,0,56.71441,-9.916909,4034.135,19515.9
1195,59.75,-9.958643,-0.2701374,0.007136682,0,0,0,0,0,9.958375,43.46788,0.2701373,0,57.03612,-9.958643,4034.518,19498.6
1200,60.0,-9.999842,-0.2707052,0.007151684,0,0,0,0,0,9.999575,43.64772,0.2707052,0,57.35474,-9.999842,4030.138,19459.1
1205,60.25,-10.04211,-0.2714159,0.007170459,0,0,0,0,0,10.04184,43.83221,0.2714159,0,57.68266,-10.04211,4027.488,19428.1
1210,60.5,-10.08358,-0.2723208,0.007194367,0,0,0,0,0,10.08331,44.01321,0.2723208,0,58.00544,-10.08358,4027.895,19412.7
1215,60.75,-10.12518,-0.2731748,0.007216927,0,0,0,0,0,10.12491,44.19479,0.2731748,0,58.3303,-10.12518,4027.421,19393.5
1220,61.0,-10.16691,-0.2742229,0.007244617,0,0,0,0,0,10.16664,44.37695,0.2742229,0,58.65725,-10.16691,4029.677,19388
1225,61.25,-10.20837,-0.2752116,0.007270736,0,0,0,0,0,10.20811,44.55795,0.2752115,0,58.98319,-10.20837,4031.045,19378.9
1230,61.5,-10.25024,-0.2764067,0.00730231,0,0,0,0,0,10.24998,44.7407,0.2764067,0,59.31335,-10.25024,4035.206,19383.5
1235,61.75,-10.29171,-0.2774355,0.007329491,0,0,0,0,0,10.29144,44.9217,0.2774355,0,59.64144,-10.29171,4036.959,19377.3
1240,62.0,-10.33344,-0.278474,0.007356927,0,0,0,0,0,10.33317,45.10386,0.278474,0,59.97272,-10.33344,4038.668,19371.3
1245,62.25,-10.37531,-0.2792981,0.007378698,0,0,0,0,0,10.37504,45.28661,0.2792981,0,60.30617,-10.37531,4037.136,19350.2
1250,62.5,-10.41664,-0.2805432,0.007411591,0,0,0,0,0,10.41637,45.46703,0.2805432,0,60.63647,-10.41664,4041.761,19359.3
1255,62.75,-10.45877,-0.2811189,0.007426801,0,0,0,0,0,10.45851,45.65094,0.2811189,0,60.97429,-10.45877,4036.397,19320.9
1260,63.0,-10.50037,-0.2822641,0.007457055,0,0,0,0,0,10.50011,45.83252,0.2822641,0,61.30894,-10.50037,4039.299,19322.8
1265,63.25,-10.54171,-0.2824332,0.007461522,0,0,0,0,0,10.54144,46.01294,0.2824332,0,61.64257,-10.54171,4028.257,19258.5
1270,63.5,-10.58357,-0.2839999,0.007502912,0,0,0,0,0,10.58331,46.19568,0.2839999,0,61.98165,-10.58357,4036.891,19288.7
1275,63.75,-10.62531,-0.28468,0.007520879,0,0,0,0,0,10.62504,46.37785,0.2846799,0,62.32079,-10.62531,4032.857,19259
1280,64.0,-10.66677,-0.2862599,0.00756262,0,0,0,0,0,10.66651,46.55885,0.2862599,0,62.6589,-10.66677,4041.551,19290.6
1285,64.25,-10.70837,-0.2873305,0.007590903,0,0,0,0,0,10.70811,46.74043,0.2873305,0,62.99927,-10.70837,4042.882,19287.5
1290,64.5,-10.75024,-0.2887474,0.007628337,0,0,0,0,0,10.74997,46.92317,0.2887474,0,63.34297,-10.75024,4048.879,19307.1
1295,64.75,-10.79184,-0.2897171,0.007653954,0,0,0,0,0,10.79157,47.10475,0.2897171,0,63.68567,-10.79184,4048.578,19297.3
1300,65.0,-10.83331,-0.2913124,0.0076961,0,0,0,0,0,10.83304,47.28576,0.2913124,0,64.02845,-10.83331,4056.941,19329.3
1305,65.25,-10.87544,-0.2925897,0.007729845,0,0,0,0,0,10.87517,47.46967,0.2925897,0,64.37794,-10.87544,4060.513,19338.8
1310,65.5,-10.91664,-0.2938559,0.007763295,0,0,0,0,0,10.91637,47.6495,0.2938558,0,64.72087,-10.91664,4064.123,19349.2
1315,65.75,-10.95837,-0.2949258,0.00779156,0,0,0,0,0,10.95811,47.83167,0.2949257,0,65.06945,-10.95837,4064.727,19345.7
1320,66.0,-11.00037,-0.2961761,0.007824592,0,0,0,0,0,11.00011,48.01499,0.2961761,0,65.42148,-11.00037,4067.615,19353.5
1325,66.25,-11.04171,-0.2976668,0.007863974,0,0,0,0,0,11.04144,48.19541,0.2976668,0,65.76914,-11.04171,4073.9,19378.1
1330,66.5,-11.08357,-0.2991986,0.007904444,0,0,0,0,0,11.08331,48.37815,0.2991986,0,66.12252,-11.08357,4080.42,19404.3
1335,66.75,-11.12504,-0.3006476,0.007942725,0,0,0,0,0,11.12477,48.55915,0.3006476,0,66.47377,-11.12504,4085.805,19425.6
1340,67.0,-11.16704,-0.3018299,0.007973958,0,0,0,0,0,11.16677,48.74248,0.3018299,0,66.83079,-11.16704,4087.253,19428.6
1345,67.25,-11.20864,-0.3033453,0.008013993,0,0,0,0,0,11.20837,48.92406,0.3033453,0,67.18568,-11.20864,4093.221,19453.7
1350,67.5,-11.25024,-0.304881,0.008054566,0,0,0,0,0,11.24997,49.10564,0.304881,0,67.54182,-11.25024,4099.319,19479.9
1355,67.75,-11.29211,-0.3069291,0.008108674,0,0,0,0,0,11.29184,49.28839,0.3069291,0,67.90153,-11.29211,4112.039,19538
1360,68.0,-11.33331,-0.3082557,0.008143719,0,0,0,0,0,11.33304,49.46823,0.3082557,0,68.25679,-11.33331,4115.166,19551.1
1365,68.25,-11.37517,-0.3103227,0.008198326,0,0,0,0,0,11.37491,49.65097,0.3103227,0,68.61909,-11.37517,4127.778,19609.8
1370,68.5,-11.41704,-0.312308,0.008250777,0,0,0,0,0,11.41677,49.83372,0.312308,0,68.9827,-11.41704,4139.108,19662.9
1375,68.75,-11.45837,-0.314183,0.008300313,0,0,0,0,0,11.45811,50.01414,0.314183,0,69.343,-11.45837,4148.983,19709.6
1380,69.0,-11.50011,-0.3155749,0.008337084,0,0,0,0,0,11.49984,50.1963,0.3155749,0,69.70809,-11.50011,4152.176,19725
1385,69.25,-11.54197,-0.3177631,0.008394894,0,0,0,0,0,11.54171,50.37905,0.3177631,0,70.0757,-11.54197,4165.627,19789.8
1390,69.5,-11.58371,-0.3192096,0.008433109,0,0,0,0,0,11.58344,50.56121,0.3192096,0,70.44348,-11.58371,4169.227,19808.2
1395,69.75,-11.62491,-0.3209712,0.008479646,0,0,0,0,0,11.62464,50.74105,0.3209712,0,70.80791,-11.62491,4176.985,19847
1400,70.0,-11.66704,-0.3229519,0.008531976,0,0,0,0,0,11.66677,50.92496,0.3229519,0,71.18196,-11.66704,4187.071,19897.3
1405,70.25,-11.7085,-0.3247717,0.008580051,0,0,0,0,0,11.70824,51.10595,0.3247717,0,71.55145,-11.7085,4195.135,19938.6
1410,70.5,-11.74997,-0.3266879,0.008630675,0,0,0,0,0,11.74971,51.28696,0.3266879,0,71.92234,-11.74997,4204.264,19985.4
1415,70.75,-11.79197,-0.3281689,0.008669802,0,0,0,0,0,11.79171,51.47028,0.3281689,0,72.29939,-11.79197,4207.43,20004.5
1420,71.0,-11.83344,-0.330668,0.008735825,0,0,0,0,0,11.83317,51.65128,0.330668,0,72.67305,-11.83344,4223.659,20086.2
1425,71.25,-11.87517,-0.3322799,0.008778407,0,0,0,0,0,11.8749,51.83345,0.3322799,0,73.05053,-11.87517,4228.257,20113.2
1430,71.5,-11.9169,-0.3347885,0.008844683,0,0,0,0,0,11.91664,52.01561,0.3347885,0,73.42945,-11.9169,4244.067,20194.1
1435,71.75,-11.9585,-0.3372571,0.008909899,0,0,0,0,0,11.95824,52.19719,0.3372571,0,73.80858,-11.9585,4259.182,20272.2
1440,72.0,-12.0001,-0.3397435,0.008975587,0,0,0,0,0,11.99984,52.37878,0.3397435,0,74.18917,-12.0001,4274.284,20350.9
1445,72.25,-12.04197,-0.3425494,0.009049715,0,0,0,0,0,12.04171,52.56152,0.3425494,0,74.57365,-12.04197,4293.047,20447.6
1450,72.5,-12.08357,-0.3443413,0.009097055,0,0,0,0,0,12.0833,52.7431,0.3443413,0,74.95715,-12.08357,4298.986,20483.8
1455,72.75,-12.1253,-0.3470229,0.009167901,0,0,0,0,0,12.12504,52.92527,0.347023,0,75.34338,-12.1253,4315.765,20572.3
1460,73.0,-12.16664,-0.3485225,0.009207518,0,0,0,0,0,12.16637,53.10568,0.3485225,0,75.72737,-12.16664,4317.803,20591
1465,73.25,-12.20877,-0.3514986,0.009286141,0,0,0,0,0,12.2085,53.28959,0.3514985,0,76.12032,-12.20877,4337.594,20695.1
1470,73.5,-12.25024,-0.3526093,0.009315485,0,0,0,0,0,12.24997,53.47059,0.3526093,0,76.50856,-12.25024,4334.44,20690.3
1475,73.75,-12.29184,-0.3551574,0.009382801,0,0,0,0,0,12.29157,53.65217,0.3551573,0,76.89957,-12.29184,4348.725,20769.2
1480,74.0,-12.3337,-0.3572099,0.009437027,0,0,0,0,0,12.33344,53.83492,0.3572099,0,77.29465,-12.3337,4356.612,20818.4
1485,74.25,-12.37504,-0.3594183,0.009495369,0,0,0,0,0,12.37477,54.01534,0.3594183,0,77.68622,-12.37504,4366.414,20877.1
1490,74.5,-12.41664,-0.3619564,0.009562423,0,0,0,0,0,12.41637,54.19692,0.3619564,0,78.08188,-12.41664,4379.884,20954.1
1495,74.75,-12.45837,-0.3647165,0.009635341,0,0,0,0,0,12.4581,54.37909,0.3647165,0,78.48039,-12.45837,4395.731,21043.2
1500,75.0,-12.50024,-0.3676181,0.009711999,0,0,0,0,0,12.49997,54.56183,0.3676181,0,78.88177,-12.50024,4412.955,21139.5
1505,75.25,-12.5417,-0.3696422,0.009765471,0,0,0,0,0,12.54144,54.74283,0.3696422,0,79.2809,-12.5417,4419.576,21185.6
1510,75.5,-12.5837,-0.3727972,0.009848824,0,0,0,0,0,12.58344,54.92616,0.3727972,0,79.68681,-12.5837,4439.243,21295.1
1515,75.75,-12.62544,-0.3742015,0.009885924,0,0,0,0,0,12.62517,55.10832,0.3742015,0,80.09178,-12.62544,4437.957,21304.7
1520,76.0,-12.6665,-0.3755814,0.00992238,0,0,0,0,0,12.66623,55.28757,0.3755814,0,80.49186,-12.6665,4436.537,21314
1525,76.25,-12.70877,-0.3772166,0.009965578,0,0,0,0,0,12.7085,55.47206,0.3772166,0,80.90534,-12.70877,4437.466,21335.5
1530,76.5,-12.7501,-0.3793497,0.01002193,0,0,0,0,0,12.74984,55.65248,0.3793497,0,81.31135,-12.7501,4444.478,21386.6
1535,76.75,-12.79184,-0.3811661,0.01006992,0,0,0,0,0,12.79157,55.83465,0.3811661,0,81.72296,-12.79184,4447.416,21418.9
1540,77.0,-12.83357,-0.3828396,0.01011413,0,0,0,0,0,12.8333,56.01681,0.3828396,0,82.13626,-12.83357,4448.518,21443
1545,77.25,-12.87517,-0.3841422,0.01014854,0,0,0,0,0,12.8749,56.19839,0.3841422,0,82.54996,-12.87517,4445.226,21446.5
1550,77.5,-12.91704,-0.3863423,0.01020667,0,0,0,0,0,12.91677,56.38114,0.3863423,0,82.96805,-12.91704,4452.033,21499.4
1555,77.75,-12.95837,-0.3887725,0.01027087,0,0,0,0,0,12.9581,56.56156,0.3887725,0,83.38254,-12.95837,4461.506,21565.6
1560,78.0,-13.0001,-0.3910904,0.01033211,0,0,0,0,0,12.99984,56.74372,0.3910905,0,83.80278,-13.0001,4469.285,21624.5
1565,78.25,-13.04184,-0.3934076,0.01039332,0,0,0,0,0,13.04157,56.92588,0.3934076,0,84.22479,-13.04184,4476.832,21683
1570,78.5,-13.08317,-0.3956496,0.01045255,0,0,0,0,0,13.0829,57.1063,0.3956496,0,84.64453,-13.08317,4483.487,21737.7
1575,78.75,-13.1253,-0.3983489,0.01052387,0,0,0,0,0,13.12503,57.29021,0.3983489,0,85.0742,-13.1253,4494.721,21815.8
1580,79.0,-13.16703,-0.4008471,0.01058987,0,0,0,0,0,13.16677,57.47238,0.4008471,0,85.50164,-13.16703,4503.619,21883
1585,79.25,-13.2085,-0.4028975,0.01064403,0,0,0,0,0,13.20823,57.65337,0.4028975,0,85.92814,-13.2085,4507.39,21925.9
1590,79.5,-13.25023,-0.4054372,0.01071113,0,0,0,0,0,13.24997,57.83554,0.4054373,0,86.35925,-13.25023,4516.291,21994.6
1595,79.75,-13.2921,-0.4074034,0.01076307,0,0,0,0,0,13.29183,58.01828,0.4074034,0,86.7936,-13.2921,4518.524,22031.7
1600,80.0,-13.33343,-0.4090509,0.0108066,0,0,0,0,0,13.33317,58.1987,0.4090509,0,87.22428,-13.33343,4517.299,22052.2
1605,80.25,-13.37517,-0.4115589,0.01087286,0,0,0,0,0,13.3749,58.38087,0.4115589,0,87.66102,-13.37517,4525.189,22118.1
1610,80.50001,-13.41703,-0.4133914,0.01092127,0,0,0,0,0,13.41677,58.56361,0.4133914,0,88.10107,-13.41703,4525.38,22147.3
1615,80.75001,-13.4585,-0.4159872,0.01098985,0,0,0,0,0,13.45823,58.74461,0.4159872,0,88.53885,-13.4585,4533.904,22217.7
1620,81.00001,-13.5001,-0.4170162,0.01101703,0,0,0,0,0,13.49983,58.92619,0.4170162,0,88.97996,-13.5001,4525.115,22204
1625,81.25001,-13.5421,-0.4205822,0.01111124,0,0,0,0,0,13.54183,59.10952,0.4205821,0,89.42729,-13.5421,4543.44,22324.4
1630,81.50001,-13.5833,-0.4221838,0.01115355,0,0,0,0,0,13.58303,59.28936,0.4221838,0,89.86807,-13.5833,4540.683,22341.5
1635,81.75001,-13.62517,-0.4247797,0.01122213,0,0,0,0,0,13.6249,59.4721,0.4247797,0,90.31795,-13.62517,4548.096,22409.8
1640,82.00001,-13.66703,-0.4272519,0.01128745,0,0,0,0,0,13.66677,59.65485,0.4272518,0,90.76989,-13.66703,4553.938,22471.2
1645,82.25001,-13.70837,-0.429902,0.01135746,0,0,0,0,0,13.7081,59.83526,0.429902,0,91.21807,-13.70837,4561.694,22542.4
1650,82.50001,-13.7501,-0.4319341,0.01141115,0,0,0,0,0,13.74983,60.01743,0.4319341,0,91.67266,-13.7501,4562.469,22580.2
1655,82.75001,-13.79183,-0.434961,0.01149111,0,0,0,0,0,13.79157,60.19959,0.434961,0,92.1293,-13.79183,4573.509,22669.6
1660,83.00001,-13.8337,-0.4365336,0.01153266,0,0,0,0,0,13.83343,60.38234,0.4365336,0,92.58952,-13.8337,4568.969,22682.7
1665,83.25001,-13.87517,-0.4395461,0.01161224,0,0,0,0,0,13.8749,60.56334,0.4395461,0,93.04743,-13.87517,4579.481,22771
1670,83.50001,-13.91677,-0.4411173,0.01165375,0,0,0,0,0,13.9165,60.74492,0.4411173,0,93.50894,-13.91677,4574.69,22784.1
1675,83.75001,-13.95863,-0.444366,0.01173958,0,0,0,0,0,13.95837,60.92767,0.444366,0,93.97556,-13.95863,4586.927,22883
1680,84.00001,-13.99997,-0.4457583,0.01177636,0,0,0,0,0,13.9997,61.10809,0.4457583,0,94.43838,-13.99997,4580.053,22887
1685,84.25001,-14.04197,-0.4490705,0.01186387,0,0,0,0,0,14.0417,61.29141,0.4490705,0,94.91087,-14.04197,4592.335,22988.1
1690,84.50001,-14.08357,-0.4521411,0.01194499,0,0,0,0,0,14.0833,61.47299,0.4521411,0,95.38107,-14.08357,4602.046,23076.9
1695,84.75001,-14.12517,-0.4555018,0.01203377,0,0,0,0,0,14.1249,61.65458,0.4555018,0,95.8535,-14.12517,4614.401,23179.9
1700,85.00001,-14.16677,-0.4589997,0.01212618,0,0,0,0,0,14.1665,61.83616,0.4589997,0,96.32817,-14.16677,4627.817,23289.3
1705,85.25001,-14.20863,-0.4631279,0.01223524,0,0,0,0,0,14.20837,62.0189,0.4631279,0,96.80816,-14.20863,4647.08,23429.6
1710,85.50001,-14.25023,-0.4664054,0.01232183,0,0,0,0,0,14.24997,62.20049,0.4664054,0,97.28739,-14.25023,4657.592,23526.5
1715,85.75001,-14.29156,-0.4701623,0.01242108,0,0,0,0,0,14.2913,62.3809,0.4701622,0,97.76584,-14.29156,4672.699,23647.4
1720,86.00001,-14.33383,-0.4733729,0.0125059,0,0,0,0,0,14.33356,62.5654,0.4733728,0,98.25746,-14.33383,4681.536,23738.7
1725,86.25001,-14.37517,-0.4772755,0.01260901,0,0,0,0,0,14.3749,62.74581,0.4772755,0,98.74058,-14.37517,4697.383,23865.6
1730,86.50001,-14.41663,-0.4806541,0.01269826,0,0,0,0,0,14.41636,62.92681,0.4806541,0,99.22762,-14.41663,4707.651,23965.4
1735,86.75001,-14.45863,-0.4846553,0.01280397,0,0,0,0,0,14.45836,63.11014,0.4846553,0,99.72334,-14.45863,4723.367,24094.7
1740,87.00001,-14.5001,-0.4882912,0.01290003,0,0,0,0,0,14.49983,63.29114,0.4882912,0,100.2152,-14.5001,4735.453,24206
1745,87.25001,-14.54183,-0.4922305,0.0130041,0,0,0,0,0,14.54156,63.4733,0.4922305,0,100.7127,-14.54183,4749.968,24331.3
1750,87.50001,-14.58343,-0.4966981,0.01312213,0,0,0,0,0,14.58316,63.65488,0.4966981,0,101.211,-14.58343,4769.252,24482.1
1755,87.75001,-14.62516,-0.500863,0.01323216,0,0,0,0,0,14.6249,63.83705,0.500863,0,101.7135,-14.62516,4785.138,24616.9
1760,88.00001,-14.6669,-0.5059484,0.01336651,0,0,0,0,0,14.66663,64.01921,0.5059484,0,102.2185,-14.6669,4809.374,24796.1
1765,88.25001,-14.7085,-0.5102142,0.0134792,0,0,0,0,0,14.70823,64.2008,0.5102142,0,102.7245,-14.7085,4825.448,24934.4
1770,88.50001,-14.75023,-0.5154289,0.01361697,0,0,0,0,0,14.74996,64.38296,0.5154289,0,103.2346,-14.75023,4849.962,25118
1775,88.75001,-14.79196,-0.5194644,0.01372358,0,0,0,0,0,14.7917,64.56512,0.5194644,0,103.7473,-14.79196,4862.935,25243.2
1780,89.00001,-14.83343,-0.5239318,0.01384161,0,0,0,0,0,14.83316,64.74612,0.5239318,0,104.2595,-14.83343,4879.703,25389.2
1785,89.25001,-14.87543,-0.5289491,0.01397416,0,0,0,0,0,14.87516,64.92945,0.5289491,0,104.7808,-14.87543,4900.813,25559.9
1790,89.50001,-14.91676,-0.5328491,0.01407719,0,0,0,0,0,14.9165,65.10987,0.5328491,0,105.2966,-14.91676,4911.549,25677
1795,89.75001,-14.9585,-0.5378217,0.01420856,0,0,0,0,0,14.95823,65.29203,0.5378217,0,105.8201,-14.9585,4931.502,25844.3
1800,90.00001,-15.00023,-0.5428213,0.01434064,0,0,0,0,0,14.99996,65.47419,0.5428213,0,106.3463,-15.00023,4951.223,26012
1805,90.21201,-15.03543,-0.5466092,0.01444071,0,0,0,0,0,15.03516,65.62784,0.5466092,0,106.7923,-15.03543,4963.585,26132.2