File: GFBaking/em/1_g13_6.csv
,Time sec,Extension mm,Load kgf,Compressive stress MPa,Cycle Count ,Total Cycle Count ,Repetitions Count ,Marked Data ,PIP Count ,Compressive extension mm,Compressive strain %,Compressive load kgf,Displacement (Strain 1) mm,True strain %,Corrected Position mm,True stress Pa,Elastic Modulus
0,0.0,0.0,-0.01027031,0.0002616129,0,0,0,0,0,0.0,0.0,0.01027031,0,0.0,0.0,261.6129,inf
5,0.25,-0.03479992,-0.01233,0.0003140788,0,0,0,0,0,0.03479991,0.1511069,0.01233,0,0.1512212,-0.03479992,313.6042,254678
10,0.5,-0.08173313,-0.01562309,0.0003979628,0,0,0,0,0,0.08173313,0.3548985,0.01562309,0,0.3555298,-0.08173313,396.5505,137397
15,0.7500001,-0.124933,-0.0178177,0.0004538654,0,0,0,0,0,0.124933,0.5424795,0.0178177,0,0.5439563,-0.124933,451.4033,102514
20,1.0,-0.1667996,-0.02019064,0.0005143108,0,0,0,0,0,0.1667996,0.7242709,0.02019064,0,0.7269065,-0.1667996,510.5858,87008.6
25,1.25,-0.2083995,-0.0223595,0.0005695577,0,0,0,0,0,0.2083995,0.9049044,0.02235951,0,0.9090236,-0.2083995,564.4038,77121
30,1.5,-0.2503994,-0.02490755,0.0006344633,0,0,0,0,0,0.2503994,1.087275,0.02490755,0,1.093229,-0.2503994,627.565,71499.8
35,1.75,-0.2915993,-0.02737811,0.0006973953,0,0,0,0,0,0.2915993,1.266171,0.02737811,0,1.274256,-0.2915993,688.5651,67487.6
40,2.0,-0.3334659,-0.03001309,0.0007645154,0,0,0,0,0,0.3334659,1.447963,0.03001309,0,1.458548,-0.3334659,753.4455,64694.4
45,2.25,-0.3751991,-0.03320611,0.0008458504,0,0,0,0,0,0.3751991,1.629175,0.03320611,0,1.642592,-0.3751991,832.07,63615.6
50,2.5,-0.416799,-0.03596795,0.000916202,0,0,0,0,0,0.416799,1.809809,0.03596795,0,1.826386,-0.416799,899.6205,62029.2
55,2.75,-0.4583989,-0.0398087,0.001014036,0,0,0,0,0,0.4583989,1.990442,0.0398087,0,2.010519,-0.4583989,993.8527,62422.6
60,3.0,-0.5002655,-0.04266593,0.001086818,0,0,0,0,0,0.5002655,2.172234,0.04266593,0,2.196174,-0.5002655,1063.21,61303.9
65,3.25,-0.5418654,-0.04700572,0.001197364,0,0,0,0,0,0.5418653,2.352867,0.04700572,0,2.380989,-0.5418654,1169.192,62354.3
70,3.5,-0.5833319,-0.05014936,0.001277441,0,0,0,0,0,0.5833319,2.532922,0.05014936,0,2.565553,-0.5833319,1245.085,61795.5
75,3.75,-0.6253318,-0.05456348,0.001389881,0,0,0,0,0,0.6253318,2.715292,0.05456347,0,2.752838,-0.6253318,1352.142,62718.9
80,4.0,-0.6667984,-0.05863646,0.001493631,0,0,0,0,0,0.6667984,2.895347,0.05863646,0,2.938089,-0.6667984,1450.385,63209.2
85,4.25,-0.7082649,-0.0619116,0.001577058,0,0,0,0,0,0.7082649,3.075401,0.0619116,0,3.123684,-0.7082649,1528.557,62832.4
90,4.5,-0.7502649,-0.06648405,0.001693531,0,0,0,0,0,0.7502648,3.257772,0.06648406,0,3.312019,-0.7502649,1638.359,63695.7
95,4.75,-0.7917314,-0.06977386,0.001777331,0,0,0,0,0,0.7917314,3.437826,0.06977386,0,3.49831,-0.7917314,1716.229,63346.4
100,5.0,-0.8334646,-0.0744709,0.001896977,0,0,0,0,0,0.8334646,3.619039,0.07447089,0,3.68615,-0.8334646,1828.325,64225.4
105,5.25,-0.8751979,-0.07813799,0.001990388,0,0,0,0,0,0.8751979,3.800251,0.07813799,0,3.874344,-0.8751979,1914.749,64174.6
110,5.5,-0.9167978,-0.08212763,0.002092015,0,0,0,0,0,0.9167978,3.980885,0.08212762,0,4.06229,-0.9167978,2008.734,64390.7
115,5.75,-0.958531,-0.08618419,0.002195347,0,0,0,0,0,0.958531,4.162097,0.0861842,0,4.251194,-0.958531,2103.975,64629.2
120,6.0,-1.000131,-0.09045753,0.002304201,0,0,0,0,0,1.000131,4.342731,0.09045753,0,4.439849,-1.000131,2204.135,65012.2
125,6.25,-1.041864,-0.09422217,0.002400096,0,0,0,0,0,1.041864,4.523943,0.09422217,0,4.629469,-1.041864,2291.517,65005.4
130,6.5,-1.083597,-0.09851012,0.002509322,0,0,0,0,0,1.083597,4.705156,0.09851012,0,4.819448,-1.083597,2391.255,65346.2
135,6.75,-1.125064,-0.1022241,0.002603928,0,0,0,0,0,1.125064,4.885211,0.1022241,0,5.008571,-1.125064,2476.72,65310.6
140,7.0,-1.166931,-0.1069358,0.002723948,0,0,0,0,0,1.166931,5.067002,0.1069358,0,5.199883,-1.166931,2585.926,65869.6
145,7.25,-1.208397,-0.1100727,0.002803853,0,0,0,0,0,1.208397,5.247056,0.1100727,0,5.389728,-1.208397,2656.733,65475.3
150,7.5,-1.25013,-0.1141057,0.002906583,0,0,0,0,0,1.25013,5.428268,0.1141057,0,5.581158,-1.25013,2748.806,65608.4
155,7.75,-1.291864,-0.118225,0.003011513,0,0,0,0,0,1.291864,5.609481,0.118225,0,5.772955,-1.291864,2842.583,65780.9
160,8.0,-1.333463,-0.1219718,0.003106956,0,0,0,0,0,1.333463,5.790115,0.1219718,0,5.964507,-1.333463,2927.06,65748.5
165,8.25,-1.375063,-0.1255719,0.00319866,0,0,0,0,0,1.375063,5.970748,0.1255719,0,6.156426,-1.375063,3007.676,65641.3
170,8.5,-1.416797,-0.1292291,0.003291818,0,0,0,0,0,1.416797,6.151961,0.1292291,0,6.349332,-1.416797,3089.307,65563.2
175,8.75,-1.458663,-0.1331498,0.00339169,0,0,0,0,0,1.458663,6.333752,0.1331498,0,6.543228,-1.458663,3176.869,65613.4
180,9.0,-1.499996,-0.1363544,0.003473319,0,0,0,0,0,1.499996,6.513227,0.1363544,0,6.735023,-1.499996,3247.094,65341.1
185,9.25,-1.541863,-0.1402637,0.0035729,0,0,0,0,0,1.541863,6.695019,0.1402637,0,6.92967,-1.541863,3333.693,65389.3
190,9.5,-1.58373,-0.143487,0.003655007,0,0,0,0,0,1.58373,6.876811,0.143487,0,7.124695,-1.58373,3403.659,65123.6
195,9.75,-1.624929,-0.1472505,0.003750874,0,0,0,0,0,1.624929,7.055707,0.1472505,0,7.316987,-1.624929,3486.223,65137.3
200,10.0,-1.667063,-0.1502489,0.003827251,0,0,0,0,0,1.667063,7.238657,0.1502489,0,7.514019,-1.667063,3550.21,64783.8
205,10.25,-1.708529,-0.1539044,0.003920366,0,0,0,0,0,1.708529,7.418711,0.1539044,0,7.708313,-1.708529,3629.525,64749.4
210,10.5,-1.750129,-0.1570263,0.00399989,0,0,0,0,0,1.750129,7.599345,0.1570263,0,7.903611,-1.750129,3695.925,64492.6
215,10.75,-1.791862,-0.1603555,0.004084694,0,0,0,0,0,1.791862,7.780557,0.1603555,0,8.09992,-1.791862,3766.882,64326
220,11.0,-1.833329,-0.1631596,0.004156121,0,0,0,0,0,1.833329,7.960612,0.1631596,0,8.295357,-1.833329,3825.268,63970.5
225,11.25,-1.875195,-0.1662995,0.004236104,0,0,0,0,0,1.875195,8.142403,0.1662995,0,8.493066,-1.875195,3891.183,63745.8
230,11.5,-1.916662,-0.1691315,0.004308241,0,0,0,0,0,1.916662,8.322457,0.1691315,0,8.689274,-1.916662,3949.689,63428.8
235,11.75,-1.958529,-0.1723065,0.004389118,0,0,0,0,0,1.958529,8.504249,0.1723065,0,8.887765,-1.958529,4015.857,63238.1
240,12.0,-2.000262,-0.175313,0.004465702,0,0,0,0,0,2.000262,8.685462,0.175313,0,9.086017,-2.000262,4077.835,62999.1
245,12.25,-2.041595,-0.1778783,0.004531046,0,0,0,0,0,2.041595,8.864937,0.1778783,0,9.282757,-2.041595,4129.372,62626.9
250,12.5,-2.083595,-0.1806593,0.004601887,0,0,0,0,0,2.083595,9.047307,0.1806593,0,9.483068,-2.083595,4185.54,62323.9
255,12.75,-2.125328,-0.183914,0.004684793,0,0,0,0,0,2.125328,9.22852,0.183914,0,9.682505,-2.125328,4252.456,62200.8
260,13.0,-2.166661,-0.1854538,0.004724015,0,0,0,0,0,2.166662,9.407996,0.1854538,0,9.880423,-2.166661,4279.58,61525
265,13.25,-2.208528,-0.1889524,0.004813134,0,0,0,0,0,2.208528,9.589787,0.1889524,0,10.08129,-2.208528,4351.564,61497.4
270,13.5,-2.250395,-0.1903307,0.004848244,0,0,0,0,0,2.250395,9.771579,0.1903307,0,10.28257,-2.250395,4374.494,60793.5
275,13.75,-2.291728,-0.1934843,0.004928573,0,0,0,0,0,2.291728,9.951055,0.1934842,0,10.48168,-2.291728,4438.128,60686.2
280,14.0,-2.333461,-0.194964,0.004966266,0,0,0,0,0,2.333461,10.13227,0.194964,0,10.68312,-2.333461,4463.07,60056.7
285,14.25,-2.375328,-0.197869,0.005040263,0,0,0,0,0,2.375328,10.31406,0.197869,0,10.88561,-2.375328,4520.408,59877.2
290,14.5,-2.416794,-0.1998573,0.005090913,0,0,0,0,0,2.416794,10.49411,0.1998573,0,11.08658,-2.416794,4556.667,59441.2
295,14.75,-2.458394,-0.2020649,0.005147145,0,0,0,0,0,2.458394,10.67475,0.2020649,0,11.28859,-2.458394,4597.701,59080.8
300,15.0,-2.50026,-0.2041463,0.005200163,0,0,0,0,0,2.500261,10.85654,0.2041463,0,11.49232,-2.50026,4635.606,58689.9
305,15.25,-2.541594,-0.206033,0.005248224,0,0,0,0,0,2.541594,11.03601,0.206033,0,11.69385,-2.541594,4669.029,58269
310,15.5,-2.583594,-0.208303,0.005306047,0,0,0,0,0,2.583594,11.21838,0.208303,0,11.89906,-2.583594,4710.795,57953.4
315,15.75,-2.625327,-0.2101548,0.005353217,0,0,0,0,0,2.625327,11.3996,0.2101548,0,12.10338,-2.625327,4742.972,57539.1
320,16.0,-2.66666,-0.2120963,0.005402674,0,0,0,0,0,2.66666,11.57907,0.2120963,0,12.30615,-2.66666,4777.094,57170.6
325,16.25,-2.708527,-0.2138883,0.00544832,0,0,0,0,0,2.708527,11.76086,0.2138883,0,12.51196,-2.708527,4807.551,56762.5
330,16.5,-2.750127,-0.2157027,0.005494537,0,0,0,0,0,2.750127,11.9415,0.2157027,0,12.71688,-2.750127,4838.407,56378.1
335,16.75,-2.791993,-0.2173867,0.005537433,0,0,0,0,0,2.791993,12.12329,0.2173867,0,12.92354,-2.791993,4866.114,55966.2
340,17.0,-2.83346,-0.2189408,0.00557702,0,0,0,0,0,2.83346,12.30334,0.2189408,0,13.12864,-2.83346,4890.86,55541.4
345,17.25,-2.875193,-0.2205718,0.005618567,0,0,0,0,0,2.875193,12.48456,0.2205718,0,13.33549,-2.875193,4917.113,55143
350,17.5,-2.917059,-0.2220287,0.005655678,0,0,0,0,0,2.917059,12.66635,0.2220287,0,13.54343,-2.917059,4939.31,54710.6
355,17.75,-2.95826,-0.2233442,0.005689188,0,0,0,0,0,2.95826,12.84524,0.2233442,0,13.74848,-2.95826,4958.398,54268.2
360,18.0,-3.000259,-0.2245197,0.005719132,0,0,0,0,0,3.000259,13.02761,0.2245197,0,13.95795,-3.000259,4974.065,53790.2
365,18.25,-3.041859,-0.2255784,0.0057461,0,0,0,0,0,3.041859,13.20825,0.2255784,0,14.16586,-3.041859,4987.14,53304.7
370,18.5,-3.083326,-0.2260111,0.005757121,0,0,0,0,0,3.083326,13.3883,0.2260111,0,14.37353,-3.083326,4986.34,52688.7
375,18.75,-3.125059,-0.2264376,0.005767984,0,0,0,0,0,3.125059,13.56951,0.2264376,0,14.58297,-3.125059,4985.296,52083.2
380,19.0,-3.166926,-0.2270428,0.0057834,0,0,0,0,0,3.166926,13.75131,0.2270428,0,14.79353,-3.166926,4988.107,51532
385,19.25,-3.208659,-0.2278608,0.005804238,0,0,0,0,0,3.208659,13.93252,0.2278608,0,15.00385,-3.208659,4995.561,51045
390,19.5,-3.249992,-0.2282594,0.00581439,0,0,0,0,0,3.249992,14.11199,0.2282594,0,15.2126,-3.249992,4993.864,50484
395,19.75,-3.292125,-0.2289059,0.00583086,0,0,0,0,0,3.292125,14.29494,0.2289059,0,15.42584,-3.292125,4997.342,49979
400,20.0,-3.333592,-0.2294999,0.005845989,0,0,0,0,0,3.333592,14.475,0.2294999,0,15.63614,-3.333592,4999.782,49485.4
405,20.25,-3.374925,-0.2300323,0.005859553,0,0,0,0,0,3.374925,14.65447,0.2300323,0,15.84621,-3.374925,5000.866,48992.8
410,20.5,-3.416925,-0.2304378,0.005869882,0,0,0,0,0,3.416925,14.83684,0.2304378,0,16.06013,-3.416925,4998.976,48475.9
415,20.75,-3.458525,-0.2309722,0.005883493,0,0,0,0,0,3.458525,15.01748,0.2309722,0,16.27246,-3.458525,4999.941,48003.9
420,21.0,-3.500125,-0.2314751,0.005896303,0,0,0,0,0,3.500125,15.19811,0.2314751,0,16.48524,-3.500125,5000.177,47536.6
425,21.25,-3.541858,-0.2318331,0.005905422,0,0,0,0,0,3.541858,15.37932,0.2318331,0,16.69915,-3.541858,4997.208,47049.1
430,21.5,-3.583325,-0.2322276,0.005915472,0,0,0,0,0,3.583325,15.55938,0.2322276,0,16.91216,-3.583325,4995.062,46583.8
435,21.75,-3.625324,-0.2328844,0.005932202,0,0,0,0,0,3.625324,15.74175,0.2328844,0,17.12837,-3.625324,4998.37,46174.4
440,22.0,-3.666791,-0.2335886,0.005950139,0,0,0,0,0,3.666791,15.9218,0.2335886,0,17.34229,-3.666791,5002.77,45790.2
445,22.25,-3.708524,-0.234078,0.005962608,0,0,0,0,0,3.708524,16.10301,0.234078,0,17.55805,-3.708524,5002.448,45369.8
450,22.5,-3.750257,-0.2346737,0.005977781,0,0,0,0,0,3.750258,16.28423,0.2346737,0,17.77428,-3.750257,5004.345,44979.1
455,22.75,-3.791724,-0.2352414,0.005992242,0,0,0,0,0,3.791724,16.46428,0.2352414,0,17.98959,-3.791724,5005.662,44594.8
460,23.0,-3.833591,-0.2360945,0.006013974,0,0,0,0,0,3.833591,16.64607,0.2360945,0,18.20745,-3.833591,5012.883,44267.7
465,23.25,-3.875191,-0.2364943,0.006024156,0,0,0,0,0,3.875191,16.82671,0.2364943,0,18.42439,-3.875191,5010.489,43866.7
470,23.5,-3.916791,-0.2369934,0.00603687,0,0,0,0,0,3.916791,17.00734,0.2369934,0,18.6418,-3.916791,5010.159,43492.4
475,23.75,-3.958657,-0.2379943,0.006062366,0,0,0,0,0,3.958657,17.18913,0.2379943,0,18.86109,-3.958657,5020.298,43214.2
480,24.0,-4.000124,-0.2385557,0.006076666,0,0,0,0,0,4.000124,17.36919,0.2385557,0,19.07875,-4.000124,5021.198,42867.1
485,24.25,-4.04159,-0.239059,0.006089488,0,0,0,0,0,4.04159,17.54924,0.239059,0,19.29689,-4.04159,5020.829,42516.8
490,24.5,-4.083457,-0.2398749,0.00611027,0,0,0,0,0,4.083457,17.73103,0.2398749,0,19.51762,-4.083457,5026.856,42224.5
495,24.75,-4.125323,-0.2407037,0.006131381,0,0,0,0,0,4.125323,17.91282,0.2407037,0,19.73884,-4.125323,5033.077,41940.4
500,25.0,-4.166657,-0.2410939,0.006141322,0,0,0,0,0,4.166656,18.0923,0.2410939,0,19.95772,-4.166657,5030.215,41591.6
505,25.25,-4.208656,-0.2417475,0.006157971,0,0,0,0,0,4.208656,18.27467,0.2417475,0,20.18062,-4.208656,5032.622,41288.2
510,25.5,-4.250256,-0.2422707,0.006171298,0,0,0,0,0,4.250257,18.4553,0.2422707,0,20.40189,-4.250256,5032.366,40972.6
515,25.75,-4.291723,-0.2429099,0.00618758,0,0,0,0,0,4.291723,18.63536,0.2429099,0,20.62294,-4.291723,5034.502,40683.7
520,26.0,-4.333723,-0.2437601,0.006209235,0,0,0,0,0,4.333723,18.81773,0.2437601,0,20.84733,-4.333723,5040.798,40430.5
525,26.25,-4.37519,-0.2442694,0.006222208,0,0,0,0,0,4.375189,18.99778,0.2442694,0,21.06937,-4.37519,5040.127,40131
530,26.5,-4.416923,-0.2448268,0.006236407,0,0,0,0,0,4.416923,19.179,0.2448268,0,21.29333,-4.416923,5040.327,39842.5
535,26.75,-4.458522,-0.2457681,0.006260384,0,0,0,0,0,4.458522,19.35963,0.2457681,0,21.51708,-4.458522,5048.397,39622.5
540,27.0,-4.500122,-0.2465235,0.006279628,0,0,0,0,0,4.500122,19.54026,0.2465235,0,21.74133,-4.500122,5052.572,39376.9
545,27.25,-4.541989,-0.2471971,0.006296786,0,0,0,0,0,4.541989,19.72205,0.2471971,0,21.96752,-4.541989,5054.93,39120.5
550,27.5,-4.583322,-0.2481462,0.006320962,0,0,0,0,0,4.583323,19.90153,0.2481462,0,22.19134,-4.583322,5062.994,38916.6
555,27.75,-4.625322,-0.2489934,0.006342544,0,0,0,0,0,4.625322,20.0839,0.2489934,0,22.41929,-4.625322,5068.713,38694.8
560,28.0,-4.666922,-0.2499342,0.006366508,0,0,0,0,0,4.666922,20.26453,0.2499342,0,22.64557,-4.666922,5076.364,38494.8
565,28.25,-4.708255,-0.2503489,0.00637707,0,0,0,0,0,4.708255,20.44401,0.2503489,0,22.87091,-4.708255,5073.341,38220.2
570,28.5,-4.750255,-0.2515828,0.006408502,0,0,0,0,0,4.750255,20.62638,0.2515828,0,23.10041,-4.750255,5086.66,38069
575,28.75,-4.791989,-0.2518972,0.00641651,0,0,0,0,0,4.791988,20.80759,0.2518972,0,23.32898,-4.791989,5081.389,37784.6
580,29.0,-4.833455,-0.2530572,0.006446058,0,0,0,0,0,4.833455,20.98765,0.2530572,0,23.5566,-4.833455,5093.183,37633
585,29.25,-4.875188,-0.2536871,0.006462105,0,0,0,0,0,4.875188,21.16886,0.2536871,0,23.78621,-4.875188,5094.151,37403.7
590,29.5,-4.917055,-0.2544157,0.006480664,0,0,0,0,0,4.917055,21.35065,0.2544157,0,24.01708,-4.917055,5097.0,37191.7
595,29.75,-4.958521,-0.2558067,0.006516097,0,0,0,0,0,4.958521,21.5307,0.2558067,0,24.24628,-4.958521,5113.135,37082.3
600,30.0,-5.000121,-0.2563427,0.00652975,0,0,0,0,0,5.000121,21.71134,0.2563427,0,24.47674,-5.000121,5112.054,36850.9
605,30.25,-5.041988,-0.2572215,0.006552135,0,0,0,0,0,5.041987,21.89313,0.2572215,0,24.70922,-5.041988,5117.667,36670.2
610,30.5,-5.083321,-0.2574988,0.006559198,0,0,0,0,0,5.083321,22.07261,0.2574988,0,24.93926,-5.083321,5111.412,36411.2
615,30.75,-5.125054,-0.2585816,0.006586779,0,0,0,0,0,5.125054,22.25382,0.2585815,0,25.17207,-5.125054,5120.969,36266.6
620,31.0,-5.166921,-0.2592637,0.006604154,0,0,0,0,0,5.166921,22.43561,0.2592637,0,25.40617,-5.166921,5122.472,36067.6
625,31.25,-5.208254,-0.2601201,0.00662597,0,0,0,0,0,5.208254,22.61508,0.2601201,0,25.63783,-5.208254,5127.502,35899.6
630,31.5,-5.250121,-0.2606569,0.006639644,0,0,0,0,0,5.250121,22.79688,0.2606569,0,25.87303,-5.250121,5126.012,35686.8
635,31.75,-5.291987,-0.2615449,0.006662265,0,0,0,0,0,5.291987,22.97867,0.2615449,0,26.10878,-5.291987,5131.365,35525.1
640,32.0,-5.33332,-0.2623841,0.00668364,0,0,0,0,0,5.33332,23.15814,0.2623841,0,26.34207,-5.33332,5135.833,35362.8
645,32.25,-5.375187,-0.2627057,0.006691833,0,0,0,0,0,5.375187,23.33994,0.2627057,0,26.57893,-5.375187,5129.963,35130.4
650,32.5,-5.416787,-0.2629841,0.006698924,0,0,0,0,0,5.416787,23.52057,0.2629841,0,26.81483,-5.416787,5123.299,34897.6
655,32.75,-5.458653,-0.2644741,0.006736878,0,0,0,0,0,5.458653,23.70236,0.2644741,0,27.05282,-5.458653,5140.079,34826.1
660,33.0,-5.50012,-0.264063,0.006726406,0,0,0,0,0,5.50012,23.88241,0.264063,0,27.28909,-5.50012,5119.978,34509.8
665,33.25,-5.54172,-0.2652947,0.006757781,0,0,0,0,0,5.54172,24.06305,0.2652947,0,27.52668,-5.54172,5131.653,34410.5
670,33.5,-5.58372,-0.2651839,0.006754959,0,0,0,0,0,5.58372,24.24542,0.2651839,0,27.76713,-5.58372,5117.191,34137.4
675,33.75,-5.625053,-0.2661104,0.006778561,0,0,0,0,0,5.625053,24.42489,0.2661105,0,28.00432,-5.625053,5122.904,34005
680,34.0,-5.666786,-0.2663131,0.006783722,0,0,0,0,0,5.666786,24.60611,0.266313,0,28.24439,-5.666786,5114.512,33780.2
685,34.25,-5.708653,-0.2668535,0.006797488,0,0,0,0,0,5.708652,24.7879,0.2668535,0,28.4858,-5.708653,5112.534,33600.6
690,34.5,-5.749986,-0.2670837,0.006803351,0,0,0,0,0,5.749986,24.96737,0.2670837,0,28.72471,-5.749986,5104.733,33387.8
695,34.75,-5.791853,-0.2672534,0.006807676,0,0,0,0,0,5.791853,25.14916,0.2672534,0,28.96729,-5.791853,5095.602,33167.5
700,35.0,-5.833719,-0.2674479,0.006812629,0,0,0,0,0,5.833719,25.33096,0.2674479,0,29.21046,-5.833719,5086.925,32953.5
705,35.25,-5.875186,-0.2680622,0.006828277,0,0,0,0,0,5.875185,25.51101,0.2680622,0,29.45189,-5.875186,5086.315,32796
710,35.5,-5.916385,-0.2672188,0.006806793,0,0,0,0,0,5.916386,25.68991,0.2672188,0,29.69234,-5.916385,5058.135,32465.2
715,35.75,-5.958785,-0.2687585,0.006846013,0,0,0,0,0,5.958786,25.87401,0.2687585,0,29.9404,-5.958785,5074.675,32419.9
720,36.0,-6.000252,-0.2676684,0.006818247,0,0,0,0,0,6.000252,26.05407,0.2676684,0,30.1836,-6.000252,5041.816,32065.3
725,36.25,-6.041585,-0.2694116,0.00686265,0,0,0,0,0,6.041585,26.23355,0.2694116,0,30.42661,-6.041585,5062.333,32053.3
730,36.5,-6.083585,-0.2689639,0.006851247,0,0,0,0,0,6.083585,26.41591,0.2689639,0,30.67414,-6.083585,5041.427,31779.1
735,36.75,-6.125185,-0.2697668,0.006871698,0,0,0,0,0,6.125185,26.59655,0.2697668,0,30.91992,-6.125185,5044.064,31657.5
740,37.0,-6.166785,-0.2694342,0.006863227,0,0,0,0,0,6.166785,26.77718,0.2694342,0,31.16631,-6.166785,5025.448,31405.2
745,37.25,-6.208518,-0.269899,0.006875065,0,0,0,0,0,6.208518,26.95839,0.269899,0,31.4141,-6.208518,5021.658,31247.9
750,37.5,-6.249985,-0.2696599,0.006868975,0,0,0,0,0,6.249985,27.13845,0.2696599,0,31.66091,-6.249985,5004.842,31013.1
755,37.75,-6.291985,-0.2698329,0.006873382,0,0,0,0,0,6.291985,27.32082,0.2698329,0,31.91152,-6.291985,4995.518,30825.8
760,38.0,-6.333451,-0.269754,0.006871372,0,0,0,0,0,6.333451,27.50087,0.269754,0,32.15957,-6.333451,4981.684,30615
765,38.25,-6.375318,-0.2698608,0.006874092,0,0,0,0,0,6.375318,27.68266,0.2698608,0,32.41063,-6.375318,4971.16,30426
770,38.5,-6.416918,-0.2698671,0.006874252,0,0,0,0,0,6.416918,27.8633,0.2698671,0,32.66072,-6.416918,4958.859,30229.5
775,38.75,-6.458384,-0.2696157,0.006867849,0,0,0,0,0,6.458385,28.04335,0.2696157,0,32.91064,-6.458384,4941.874,30007.4
780,39.0,-6.500251,-0.2699662,0.006876777,0,0,0,0,0,6.500251,28.22514,0.2699662,0,33.1636,-6.500251,4935.797,29852.9
785,39.25,-6.541851,-0.2698335,0.006873398,0,0,0,0,0,6.541851,28.40578,0.2698335,0,33.41558,-6.541851,4920.955,29648.5
790,39.5,-6.583317,-0.2695852,0.006867072,0,0,0,0,0,6.583317,28.58583,0.2695852,0,33.66739,-6.583317,4904.062,29434.6
795,39.75,-6.625317,-0.2697398,0.00687101,0,0,0,0,0,6.625317,28.7682,0.2697398,0,33.92309,-6.625317,4894.344,29264.8
800,40.0,-6.666784,-0.2690122,0.006852475,0,0,0,0,0,6.666784,28.94826,0.2690122,0,34.17618,-6.666784,4868.803,29004.3
805,40.25,-6.708384,-0.2689563,0.006851052,0,0,0,0,0,6.708384,29.12889,0.2689563,0,34.43073,-6.708384,4855.416,28818.5
810,40.5,-6.750117,-0.268774,0.006846409,0,0,0,0,0,6.750117,29.3101,0.268774,0,34.68675,-6.750117,4839.719,28620.9
815,40.75,-6.791983,-0.2689007,0.006849637,0,0,0,0,0,6.791983,29.49189,0.2689007,0,34.94425,-6.791983,4829.549,28457.9
820,41.0,-6.833317,-0.2690519,0.006853487,0,0,0,0,0,6.833317,29.67137,0.2690519,0,35.19912,-6.833317,4819.964,28301.7
825,41.25,-6.875183,-0.2692484,0.006858493,0,0,0,0,0,6.875184,29.85316,0.2692484,0,35.45795,-6.875183,4811.016,28149.9
830,41.5,-6.916916,-0.2694159,0.00686276,0,0,0,0,0,6.916916,30.03437,0.2694159,0,35.71661,-6.916916,4801.573,27997.4
835,41.75,-6.958249,-0.2697065,0.006870163,0,0,0,0,0,6.95825,30.21385,0.2697065,0,35.97346,-6.958249,4794.422,27861.1
840,42.0,-7.000383,-0.2699157,0.00687549,0,0,0,0,0,7.000383,30.3968,0.2699157,0,36.23596,-7.000383,4785.561,27714.9
845,42.25,-7.041716,-0.2701167,0.006880611,0,0,0,0,0,7.041716,30.57627,0.2701167,0,36.49415,-7.041716,4776.776,27572.8
850,42.5,-7.08345,-0.2701277,0.006880891,0,0,0,0,0,7.083449,30.75749,0.2701277,0,36.75552,-7.08345,4764.502,27411.4
855,42.75,-7.125316,-0.2702155,0.006883128,0,0,0,0,0,7.125316,30.93928,0.2702155,0,37.0184,-7.125316,4753.538,27259.2
860,43.0,-7.166649,-0.2702668,0.006884435,0,0,0,0,0,7.166649,31.11876,0.2702668,0,37.27862,-7.166649,4742.084,27107.2
865,43.25,-7.208649,-0.2704515,0.006889139,0,0,0,0,0,7.208649,31.30112,0.2704515,0,37.54374,-7.208649,4732.761,26967.6
870,43.5,-7.249849,-0.2706237,0.006893527,0,0,0,0,0,7.249849,31.48002,0.2706237,0,37.80448,-7.249849,4723.443,26831.5
875,43.75,-7.291849,-0.2715887,0.006918107,0,0,0,0,0,7.291849,31.66239,0.2715887,0,38.07099,-7.291849,4727.669,26772
880,44.0,-7.333582,-0.2719478,0.006927254,0,0,0,0,0,7.333582,31.84361,0.2719478,0,38.33652,-7.333582,4721.367,26654.9
885,44.25,-7.374915,-0.2721623,0.006932718,0,0,0,0,0,7.374915,32.02308,0.2721623,0,38.60019,-7.374915,4712.648,26526.4
890,44.5,-7.416915,-0.2724768,0.00694073,0,0,0,0,0,7.416915,32.20545,0.2724768,0,38.86884,-7.416915,4705.436,26406.7
895,44.75,-7.458649,-0.2727243,0.006947034,0,0,0,0,0,7.458649,32.38667,0.2727243,0,39.1365,-7.458649,4697.121,26282.8
900,45.0,-7.499982,-0.2729543,0.006952892,0,0,0,0,0,7.499982,32.56614,0.2729543,0,39.40229,-7.499982,4688.604,26160
905,45.25,-7.541982,-0.2736017,0.006969384,0,0,0,0,0,7.541982,32.74851,0.2736017,0,39.6731,-7.541982,4687.015,26076
910,45.5,-7.583715,-0.2740083,0.006979741,0,0,0,0,0,7.583715,32.92972,0.2740083,0,39.94292,-7.583715,4681.332,25971
915,45.75,-7.625181,-0.2744871,0.006991937,0,0,0,0,0,7.625181,33.10978,0.2744871,0,40.21173,-7.625181,4676.923,25874.9
920,46.0,-7.666781,-0.2752704,0.007011889,0,0,0,0,0,7.666781,33.29041,0.2752704,0,40.48214,-7.666781,4677.602,25808
925,46.25,-7.708648,-0.2759344,0.007028803,0,0,0,0,0,7.708648,33.4722,0.2759344,0,40.75503,-7.708648,4676.108,25729.7
930,46.5,-7.749981,-0.2767435,0.007049415,0,0,0,0,0,7.749981,33.65168,0.2767435,0,41.02517,-7.749981,4677.168,25667.5
935,46.75,-7.791847,-0.2779015,0.007078911,0,0,0,0,0,7.791847,33.83347,0.2779015,0,41.29954,-7.791847,4683.87,25636.4
940,47.0,-7.833715,-0.2792096,0.007112232,0,0,0,0,0,7.833714,34.01526,0.2792096,0,41.57467,-7.833715,4692.988,25619.5
945,47.25,-7.875048,-0.2803758,0.007141938,0,0,0,0,0,7.875048,34.19474,0.2803758,0,41.84703,-7.875048,4699.771,25591.4
950,47.5,-7.916781,-0.2813889,0.007167744,0,0,0,0,0,7.916781,34.37595,0.2813888,0,42.12279,-7.916781,4703.764,25548.5
955,47.75,-7.958648,-0.2828343,0.007204563,0,0,0,0,0,7.958648,34.55774,0.2828343,0,42.4002,-7.958648,4714.829,25544.7
960,48.0,-7.999981,-0.2839295,0.007232462,0,0,0,0,0,7.999981,34.73722,0.2839295,0,42.67482,-7.999981,4720.106,25511.1
965,48.25,-8.041847,-0.2849713,0.007258998,0,0,0,0,0,8.041847,34.91901,0.2849713,0,42.95377,-8.041847,4724.228,25471.4
970,48.5,-8.083447,-0.285723,0.007278147,0,0,0,0,0,8.083447,35.09964,0.285723,0,43.2317,-8.083447,4723.544,25407.1
975,48.75,-8.125314,-0.2870678,0.007312402,0,0,0,0,0,8.125314,35.28143,0.2870678,0,43.5122,-8.125314,4732.482,25395.2
980,49.0,-8.166914,-0.2882169,0.007341674,0,0,0,0,0,8.166914,35.46207,0.2882169,0,43.7917,-8.166914,4738.165,25367
985,49.25,-8.208513,-0.2894909,0.007374125,0,0,0,0,0,8.208513,35.6427,0.2894909,0,44.07198,-8.208513,4745.788,25350
990,49.5,-8.250247,-0.2908912,0.007409793,0,0,0,0,0,8.250247,35.82391,0.2908912,0,44.35395,-8.250247,4755.316,25343.8
995,49.75,-8.29158,-0.2921776,0.007442562,0,0,0,0,0,8.29158,36.00339,0.2921776,0,44.634,-8.29158,4762.988,25328.9
1000,50.0,-8.333446,-0.2935807,0.007478302,0,0,0,0,0,8.333447,36.18518,0.2935807,0,44.91847,-8.333446,4772.265,25322.7
1005,50.25,-8.37518,-0.2950699,0.007516238,0,0,0,0,0,8.37518,36.36639,0.2950699,0,45.20284,-8.37518,4782.853,25324.3
1010,50.5,-8.416646,-0.2960346,0.00754081,0,0,0,0,0,8.416646,36.54644,0.2960346,0,45.4862,-8.416646,4784.912,25282
1015,50.75,-8.458513,-0.2972983,0.007573001,0,0,0,0,0,8.458513,36.72824,0.2972983,0,45.7731,-8.458513,4791.571,25264.2
1020,51.0,-8.500246,-0.2986278,0.007606867,0,0,0,0,0,8.500246,36.90945,0.2986278,0,46.05992,-8.500246,4799.215,25252.6
1025,51.25,-8.541846,-0.2999062,0.00763943,0,0,0,0,0,8.541845,37.09008,0.2999062,0,46.34663,-8.541846,4805.96,25237.2
1030,51.5,-8.58318,-0.30116,0.007671368,0,0,0,0,0,8.583179,37.26956,0.30116,0,46.63234,-8.58318,4812.283,25220.7
1035,51.75,-8.625446,-0.3027165,0.007711017,0,0,0,0,0,8.625446,37.45309,0.3027165,0,46.92533,-8.625446,4823.003,25226.8
1040,52.0,-8.666779,-0.3034472,0.007729631,0,0,0,0,0,8.666779,37.63256,0.3034472,0,47.21269,-8.666779,4820.773,25167.1
1045,52.25,-8.708245,-0.3047857,0.007763725,0,0,0,0,0,8.708245,37.81261,0.3047857,0,47.5018,-8.708245,4828.057,25157.7
1050,52.5,-8.750379,-0.3054147,0.007779749,0,0,0,0,0,8.750379,37.99557,0.3054147,0,47.79643,-8.750379,4823.789,25088.3
1055,52.75,-8.791845,-0.3067359,0.007813402,0,0,0,0,0,8.791845,38.17562,0.3067359,0,48.08724,-8.791845,4830.587,25077.9
1060,53.0,-8.833446,-0.3074157,0.007830718,0,0,0,0,0,8.833446,38.35625,0.3074157,0,48.37984,-8.833446,4827.147,25015.2
1065,53.25,-8.875178,-0.3086129,0.007861214,0,0,0,0,0,8.875178,38.53746,0.3086129,0,48.67424,-8.875178,4831.701,24994.5
1070,53.5,-8.916778,-0.3094276,0.007881965,0,0,0,0,0,8.916779,38.7181,0.3094276,0,48.96857,-8.916778,4830.218,24943.6
1075,53.75,-8.958645,-0.310365,0.007905845,0,0,0,0,0,8.958645,38.89989,0.310365,0,49.26566,-8.958645,4830.48,24902.2
1080,54.0,-9.000111,-0.3112238,0.00792772,0,0,0,0,0,9.000112,39.07994,0.3112237,0,49.56078,-9.000111,4829.571,24856
1085,54.25,-9.041845,-0.3122017,0.007952631,0,0,0,0,0,9.041845,39.26116,0.3122017,0,49.85868,-9.041845,4830.336,24819.1
1090,54.5,-9.083712,-0.3124897,0.007959968,0,0,0,0,0,9.083712,39.44295,0.3124897,0,50.15843,-9.083712,4820.322,24727.5
1095,54.75,-9.125045,-0.3132494,0.007979318,0,0,0,0,0,9.125045,39.62243,0.3132494,0,50.45524,-9.125045,4817.719,24675.3
1100,55.0,-9.166911,-0.3141069,0.008001163,0,0,0,0,0,9.166911,39.80422,0.3141069,0,50.75679,-9.166911,4816.362,24629.8
1105,55.25,-9.208645,-0.3152768,0.008030962,0,0,0,0,0,9.208645,39.98543,0.3152768,0,51.05828,-9.208645,4819.747,24609.5
1110,55.5,-9.249978,-0.3162474,0.008055686,0,0,0,0,0,9.249978,40.16491,0.3162474,0,51.35778,-9.249978,4820.127,24575
1115,55.75,-9.291844,-0.3178302,0.008096005,0,0,0,0,0,9.291844,40.3467,0.3178302,0,51.66207,-9.291844,4829.534,24586.7
1120,56.0,-9.333444,-0.3189136,0.0081236,0,0,0,0,0,9.333444,40.52733,0.3189135,0,51.96533,-9.333444,4831.322,24560.6
1125,56.25,-9.375044,-0.320327,0.008159604,0,0,0,0,0,9.375044,40.70797,0.320327,0,52.26952,-9.375044,4837.996,24560
1130,56.5,-9.416777,-0.3220592,0.00820373,0,0,0,0,0,9.416777,40.88918,0.3220592,0,52.57561,-9.416777,4849.292,24583.3
1135,56.75,-9.458643,-0.323528,0.008241142,0,0,0,0,0,9.458643,41.07096,0.323528,0,52.88363,-9.458643,4856.426,24586.1
1140,57.0,-9.499977,-0.3248328,0.008274379,0,0,0,0,0,9.499977,41.25044,0.3248328,0,53.18866,-9.499977,4861.161,24577.9
1145,57.25,-9.541977,-0.3264289,0.008315036,0,0,0,0,0,9.541977,41.43282,0.3264289,0,53.49956,-9.541977,4869.883,24589.9
1150,57.5,-9.58371,-0.3276825,0.008346969,0,0,0,0,0,9.58371,41.61403,0.3276825,0,53.80945,-9.58371,4873.46,24576.9
1155,57.75,-9.62491,-0.3288164,0.008375852,0,0,0,0,0,9.624909,41.79292,0.3288164,0,54.11632,-9.62491,4875.339,24556.4
1160,58.0,-9.666909,-0.3301885,0.008410804,0,0,0,0,0,9.666909,41.97529,0.3301885,0,54.43012,-9.666909,4880.344,24551.7
1165,58.25,-9.70851,-0.3313107,0.008439389,0,0,0,0,0,9.708509,42.15593,0.3313107,0,54.74192,-9.70851,4881.687,24529.6
1170,58.5,-9.75011,-0.3325215,0.008470233,0,0,0,0,0,9.75011,42.33656,0.3325215,0,55.05469,-9.75011,4884.227,24514.2
1175,58.75,-9.791843,-0.3337608,0.008501799,0,0,0,0,0,9.791842,42.51777,0.3337608,0,55.36943,-9.791843,4887.024,24500.7
1180,59.0,-9.833443,-0.3351667,0.008537611,0,0,0,0,0,9.833443,42.69841,0.3351667,0,55.68417,-9.833443,4892.187,24499.8
1185,59.25,-9.87531,-0.3367759,0.008578603,0,0,0,0,0,9.87531,42.8802,0.3367759,0,56.00193,-9.87531,4900.081,24513.1
1190,59.5,-9.916643,-0.3380547,0.008611178,0,0,0,0,0,9.916643,43.05967,0.3380547,0,56.31664,-9.916643,4903.233,24503.6
1195,59.75,-9.958509,-0.3396873,0.008652763,0,0,0,0,0,9.958509,43.24147,0.3396873,0,56.63641,-9.958509,4911.182,24518.4
1200,60.0,-10.00024,-0.3414513,0.0086977,0,0,0,0,0,10.00024,43.42268,0.3414513,0,56.95619,-10.00024,4920.926,24542.9
1205,60.25,-10.04158,-0.3428383,0.00873303,0,0,0,0,0,10.04158,43.60215,0.3428383,0,57.27392,-10.04158,4925.241,24541.1
1210,60.5,-10.08358,-0.3444177,0.008773261,0,0,0,0,0,10.08358,43.78452,0.3444177,0,57.59781,-10.08358,4931.93,24551.5
1215,60.75,-10.12518,-0.3455916,0.008803164,0,0,0,0,0,10.12518,43.96516,0.3455916,0,57.91965,-10.12518,4932.839,24534
1220,61.0,-10.16678,-0.346668,0.008830582,0,0,0,0,0,10.16678,44.14579,0.346668,0,58.24253,-10.16678,4932.252,24509.7
1225,61.25,-10.20851,-0.3486052,0.008879928,0,0,0,0,0,10.20851,44.327,0.3486052,0,58.5675,-10.20851,4943.722,24545.9
1230,61.5,-10.25037,-0.349601,0.008905293,0,0,0,0,0,10.25037,44.50879,0.349601,0,58.89456,-10.25037,4941.655,24515.5
1235,61.75,-10.29197,-0.3508406,0.008936868,0,0,0,0,0,10.29198,44.68943,0.3508406,0,59.22061,-10.29197,4943.033,24502.9
1240,62.0,-10.33344,-0.351836,0.008962226,0,0,0,0,0,10.33344,44.86948,0.351836,0,59.54667,-10.33344,4940.922,24473.9
1245,62.25,-10.37531,-0.3532503,0.008998251,0,0,0,0,0,10.37531,45.05127,0.3532503,0,59.87696,-10.37531,4944.424,24473.1
1250,62.5,-10.41664,-0.3547473,0.009036383,0,0,0,0,0,10.41664,45.23075,0.3547473,0,60.20412,-10.41664,4949.16,24479.3
1255,62.75,-10.45837,-0.3564666,0.009080179,0,0,0,0,0,10.45837,45.41196,0.3564666,0,60.53554,-10.45837,4956.692,24499.8
1260,63.0,-10.50011,-0.3584639,0.009131055,0,0,0,0,0,10.50011,45.59317,0.3584639,0,60.86806,-10.50011,4967.918,24539.1
1265,63.25,-10.54171,-0.3602834,0.009177404,0,0,0,0,0,10.54171,45.7738,0.3602834,0,61.20061,-10.54171,4976.557,24566.3
1270,63.5,-10.58357,-0.3625256,0.009234519,0,0,0,0,0,10.58357,45.9556,0.3625256,0,61.53642,-10.58357,4990.741,24621.5
1275,63.75,-10.62531,-0.3651441,0.009301217,0,0,0,0,0,10.62531,46.13681,0.365144,0,61.87229,-10.62531,5009.932,24701.9
1280,64.0,-10.66677,-0.3676963,0.009366229,0,0,0,0,0,10.66677,46.31686,0.3676963,0,62.20713,-10.66677,5028.086,24777.9
1285,64.25,-10.70851,-0.3703592,0.009434062,0,0,0,0,0,10.70851,46.49808,0.3703592,0,62.54526,-10.70851,5047.405,24860
1290,64.5,-10.75011,-0.3726062,0.009491299,0,0,0,0,0,10.75011,46.67871,0.3726062,0,62.88345,-10.75011,5060.883,24914.1
1295,64.75,-10.79197,-0.3757485,0.009571341,0,0,0,0,0,10.79197,46.8605,0.3757485,0,63.22497,-10.79197,5086.162,25026.7
1300,65.0,-10.83344,-0.3778155,0.009623994,0,0,0,0,0,10.83344,47.04056,0.3778155,0,63.56438,-10.83344,5096.814,25068.1
1305,65.25,-10.87504,-0.3802995,0.009687269,0,0,0,0,0,10.87504,47.22119,0.3802995,0,63.90605,-10.87504,5112.825,25136.3
1310,65.5,-10.91704,-0.3826372,0.009746815,0,0,0,0,0,10.91704,47.40356,0.3826371,0,64.25218,-10.91704,5126.477,25193.6
1315,65.75,-10.95837,-0.3846885,0.009799067,0,0,0,0,0,10.95837,47.58304,0.3846885,0,64.59399,-10.95837,5136.373,25233.1
1320,66.0,-11.00011,-0.3870586,0.009859441,0,0,0,0,0,11.00011,47.76425,0.3870586,0,64.9403,-11.00011,5150.153,25292.2
1325,66.25,-11.04197,-0.3895231,0.009922219,0,0,0,0,0,11.04197,47.94604,0.3895231,0,65.28893,-11.04197,5164.908,25356.8
1330,66.5,-11.08344,-0.3918269,0.009980902,0,0,0,0,0,11.08344,48.12609,0.3918269,0,65.63543,-11.08344,5177.484,25411.3
1335,66.75,-11.12517,-0.3943975,0.01004638,0,0,0,0,0,11.12517,48.3073,0.3943975,0,65.98537,-11.12517,5193.246,25482.1
1340,67.0,-11.16677,-0.3967139,0.01010539,0,0,0,0,0,11.16677,48.48794,0.3967139,0,66.33542,-11.16677,5205.493,25536.3
1345,67.25,-11.20864,-0.3989353,0.01016197,0,0,0,0,0,11.20864,48.66973,0.3989353,0,66.68896,-11.20864,5216.168,25583.3
1350,67.5,-11.24997,-0.4014653,0.01022642,0,0,0,0,0,11.24997,48.84921,0.4014653,0,67.03922,-11.24997,5230.895,25651
1355,67.75,-11.29197,-0.4036782,0.01028279,0,0,0,0,0,11.29197,49.03158,0.4036782,0,67.39639,-11.29197,5240.975,25696.4
1360,68.0,-11.33357,-0.4059099,0.01033964,0,0,0,0,0,11.33357,49.21221,0.4059099,0,67.75143,-11.33357,5251.272,25743.7
1365,68.25,-11.37491,-0.4082805,0.01040002,0,0,0,0,0,11.37491,49.39169,0.4082805,0,68.10544,-11.37491,5263.275,25799.9
1370,68.5,-11.41704,-0.4105596,0.01045808,0,0,0,0,0,11.41704,49.57463,0.4105596,0,68.46759,-11.41704,5273.523,25848.2
1375,68.75,-11.45837,-0.4126178,0.0105105,0,0,0,0,0,11.45837,49.75411,0.4126178,0,68.82415,-11.45837,5281.096,25884.1
1380,69.0,-11.50011,-0.4143126,0.01055368,0,0,0,0,0,11.5001,49.93533,0.4143126,0,69.18545,-11.50011,5283.663,25896.1
1385,69.25,-11.54184,-0.416413,0.01060718,0,0,0,0,0,11.54184,50.11654,0.4164129,0,69.54807,-11.54184,5291.227,25933.2
1390,69.5,-11.5833,-0.4182076,0.01065289,0,0,0,0,0,11.58331,50.29659,0.4182076,0,69.90967,-11.5833,5294.85,25951.7
1395,69.75,-11.6253,-0.42023,0.01070441,0,0,0,0,0,11.62531,50.47896,0.42023,0,70.27726,-11.6253,5300.934,25983
1400,70.0,-11.66664,-0.4219632,0.01074856,0,0,0,0,0,11.66664,50.65844,0.4219632,0,70.64034,-11.66664,5303.506,25997.8
1405,70.25,-11.7085,-0.4237134,0.01079314,0,0,0,0,0,11.7085,50.84023,0.4237134,0,71.00945,-11.7085,5305.883,26012.3
1410,70.5,-11.75024,-0.4250925,0.01082827,0,0,0,0,0,11.75024,51.02144,0.4250925,0,71.37876,-11.75024,5303.53,26004.2
1415,70.75,-11.7917,-0.4264122,0.01086188,0,0,0,0,0,11.7917,51.2015,0.4264122,0,71.74705,-11.7917,5300.437,25993.2
1420,71.0,-11.83357,-0.4285937,0.01091745,0,0,0,0,0,11.83357,51.38329,0.4285937,0,72.12028,-11.83357,5307.707,26033.8
1425,71.25,-11.87517,-0.430121,0.01095636,0,0,0,0,0,11.87517,51.56392,0.430121,0,72.49252,-11.87517,5306.83,26035
1430,71.5,-11.91677,-0.4313477,0.01098761,0,0,0,0,0,11.91677,51.74455,0.4313477,0,72.86615,-11.91677,5302.118,26018.1
1435,71.75,-11.95864,-0.433625,0.01104561,0,0,0,0,0,11.95864,51.92635,0.433625,0,73.24359,-11.95864,5310.03,26063.9
1440,72.0,-12.0001,-0.4355089,0.0110936,0,0,0,0,0,12.0001,52.1064,0.4355088,0,73.61883,-12.0001,5313.125,26086.7
1445,72.25,-12.0417,-0.4372178,0.01113713,0,0,0,0,0,12.0417,52.28703,0.4372178,0,73.9967,-12.0417,5313.857,26098.6
1450,72.5,-12.08357,-0.4397201,0.01120087,0,0,0,0,0,12.08357,52.46883,0.4397201,0,74.37844,-12.08357,5323.907,26157
1455,72.75,-12.12517,-0.4415747,0.01124812,0,0,0,0,0,12.12517,52.64946,0.4415747,0,74.7592,-12.12517,5326.043,26177.2
1460,73.0,-12.16664,-0.4439628,0.01130894,0,0,0,0,0,12.16664,52.82951,0.4439628,0,75.14018,-12.16664,5334.484,26229.1
1465,73.25,-12.2085,-0.4464171,0.01137146,0,0,0,0,0,12.2085,53.01131,0.4464171,0,75.52632,-12.2085,5343.303,26283.7
1470,73.5,-12.25037,-0.4487522,0.01143095,0,0,0,0,0,12.25037,53.1931,0.4487522,0,75.91395,-12.25037,5350.471,26330.8
1475,73.75,-12.29157,-0.4507093,0.0114808,0,0,0,0,0,12.29157,53.37199,0.4507093,0,76.29688,-12.29157,5353.267,26357
1480,74.0,-12.3337,-0.4531491,0.01154295,0,0,0,0,0,12.3337,53.55494,0.4531491,0,76.69001,-12.3337,5361.128,26409.2
1485,74.25,-12.37517,-0.4557984,0.01161043,0,0,0,0,0,12.37517,53.735,0.4557984,0,77.07844,-12.37517,5371.566,26474.6
1490,74.5,-12.41677,-0.458143,0.01167016,0,0,0,0,0,12.41677,53.91563,0.4581431,0,77.46964,-12.41677,5378.118,26521.6
1495,74.75,-12.45864,-0.4609035,0.01174047,0,0,0,0,0,12.45864,54.09742,0.4609035,0,77.86489,-12.45864,5389.179,26591.7
1500,75.0,-12.5001,-0.4636633,0.01181077,0,0,0,0,0,12.5001,54.27748,0.4636633,0,78.25791,-12.5001,5400.183,26662.2
1505,75.25,-12.54184,-0.4664643,0.01188212,0,0,0,0,0,12.54184,54.45869,0.4664643,0,78.65503,-12.54184,5411.273,26734
1510,75.5,-12.5833,-0.4690466,0.0119479,0,0,0,0,0,12.5833,54.63874,0.4690466,0,79.05118,-12.5833,5419.717,26793.5
1515,75.75,-12.62517,-0.4714629,0.01200945,0,0,0,0,0,12.62517,54.82053,0.4714629,0,79.45275,-12.62517,5425.805,26842.2
1520,76.0,-12.66704,-0.4741062,0.01207678,0,0,0,0,0,12.66704,55.00233,0.4741062,0,79.85594,-12.66704,5434.271,26903.4
1525,76.25,-12.70824,-0.4761921,0.01212992,0,0,0,0,0,12.70824,55.18122,0.4761921,0,80.2543,-12.70824,5436.48,26934.2
1530,76.5,-12.75024,-0.4790565,0.01220288,0,0,0,0,0,12.75024,55.36359,0.4790565,0,80.66204,-12.75024,5446.927,27007
1535,76.75,-12.79197,-0.4818961,0.01227521,0,0,0,0,0,12.79197,55.54481,0.4818961,0,81.06884,-12.79197,5456.969,27078.4
1540,77.0,-12.8333,-0.4840065,0.01232897,0,0,0,0,0,12.8333,55.72428,0.4840065,0,81.47338,-12.8333,5458.74,27109.4
1545,77.25,-12.87517,-0.4870256,0.01240587,0,0,0,0,0,12.87517,55.90607,0.4870256,0,81.88481,-12.87517,5470.237,27189.8
1550,77.5,-12.9169,-0.4891087,0.01245894,0,0,0,0,0,12.9169,56.08729,0.4891087,0,82.29663,-12.9169,5471.057,27217.9
1555,77.75,-12.95863,-0.4916531,0.01252375,0,0,0,0,0,12.95863,56.2685,0.4916531,0,82.71014,-12.95863,5476.824,27271.4
1560,78.0,-12.99997,-0.4942854,0.0125908,0,0,0,0,0,12.99997,56.44798,0.4942854,0,83.1214,-12.99997,5483.549,27330.2
1565,78.25,-13.04184,-0.4962644,0.01264121,0,0,0,0,0,13.04183,56.62977,0.4962644,0,83.53968,-13.04184,5482.522,27351.5
1570,78.5,-13.0833,-0.4985996,0.0127007,0,0,0,0,0,13.0833,56.80982,0.4985996,0,83.9557,-13.0833,5485.454,27393.1
1575,78.75,-13.12503,-0.5007837,0.01275633,0,0,0,0,0,13.12504,56.99103,0.5007837,0,84.37616,-13.12503,5486.366,27425.6
1580,79.0,-13.1669,-0.5032682,0.01281962,0,0,0,0,0,13.1669,57.17282,0.5032682,0,84.79974,-13.1669,5490.28,27474.1
1585,79.25,-13.20823,-0.5055382,0.01287744,0,0,0,0,0,13.20823,57.3523,0.5055382,0,85.21968,-13.20823,5491.932,27511.7
1590,79.5,-13.25023,-0.5082404,0.01294627,0,0,0,0,0,13.25023,57.53467,0.5082403,0,85.64822,-13.25023,5497.677,27571
1595,79.75,-13.29197,-0.5108123,0.01301179,0,0,0,0,0,13.29197,57.71588,0.5108123,0,86.07586,-13.29197,5501.92,27623.5
1600,80.0,-13.33343,-0.5134366,0.01307863,0,0,0,0,0,13.33343,57.89594,0.5134366,0,86.50259,-13.33343,5506.636,27679.1
1605,80.25,-13.37517,-0.5158737,0.01314071,0,0,0,0,0,13.37517,58.07715,0.5158737,0,86.93392,-13.37517,5508.961,27723.7
1610,80.50001,-13.41677,-0.5187565,0.01321415,0,0,0,0,0,13.41677,58.25778,0.5187565,0,87.36571,-13.41677,5515.878,27792.2
1615,80.75001,-13.45863,-0.5217404,0.01329016,0,0,0,0,0,13.45863,58.43958,0.5217404,0,87.80218,-13.45863,5523.445,27865.1
1620,81.00001,-13.50023,-0.5240854,0.01334989,0,0,0,0,0,13.50023,58.62021,0.5240855,0,88.23776,-13.50023,5524.156,27904.1
1625,81.25001,-13.54183,-0.5267683,0.01341823,0,0,0,0,0,13.54183,58.80084,0.5267683,0,88.67523,-13.54183,5528.197,27960.8
1630,81.50001,-13.5837,-0.5292815,0.01348225,0,0,0,0,0,13.5837,58.98263,0.5292815,0,89.11746,-13.5837,5530.063,28007.6
1635,81.75001,-13.62503,-0.5311947,0.01353098,0,0,0,0,0,13.62503,59.16211,0.5311947,0,89.55598,-13.62503,5525.768,28023.6
1640,82.00001,-13.66663,-0.5330719,0.0135788,0,0,0,0,0,13.66663,59.34274,0.5330719,0,89.99928,-13.66663,5520.767,28037
1645,82.25001,-13.70863,-0.5357272,0.01364644,0,0,0,0,0,13.70863,59.52511,0.5357272,0,90.44885,-13.70863,5523.38,28090.3
1650,82.50001,-13.7501,-0.5374577,0.01369052,0,0,0,0,0,13.7501,59.70517,0.5374577,0,90.89469,-13.7501,5516.571,28096.1
1655,82.75001,-13.79183,-0.5395255,0.01374319,0,0,0,0,0,13.79183,59.88638,0.5395255,0,91.34542,-13.79183,5512.891,28118.8
1660,83.00001,-13.83357,-0.5422297,0.01381207,0,0,0,0,0,13.83357,60.06759,0.5422297,0,91.7982,-13.83357,5515.493,28174.5
1665,83.25001,-13.87517,-0.5441672,0.01386143,0,0,0,0,0,13.87517,60.24822,0.5441672,0,92.25157,-13.87517,5510.163,28190.4
1670,83.50001,-13.91663,-0.5471338,0.01393699,0,0,0,0,0,13.91663,60.42828,0.5471337,0,92.70555,-13.91663,5515.108,28259.6
1675,83.75001,-13.95863,-0.5494411,0.01399577,0,0,0,0,0,13.95863,60.61065,0.5494411,0,93.16747,-13.95863,5512.841,28293.4
1680,84.00001,-14.00023,-0.5522174,0.01406649,0,0,0,0,0,14.00023,60.79128,0.5522174,0,93.62711,-14.00023,5515.289,28351.9
1685,84.25001,-14.04157,-0.5547075,0.01412992,0,0,0,0,0,14.04156,60.97076,0.5547075,0,94.0859,-14.04157,5514.799,28395.9
1690,84.50001,-14.0837,-0.5582649,0.01422053,0,0,0,0,0,14.0837,61.15371,0.5582649,0,94.55576,-14.0837,5524.149,28492.5
1695,84.75001,-14.12517,-0.5615172,0.01430338,0,0,0,0,0,14.12517,61.33376,0.5615172,0,95.02034,-14.12517,5530.579,28574.4
1700,85.00001,-14.16663,-0.564341,0.01437531,0,0,0,0,0,14.16663,61.51382,0.564341,0,95.48709,-14.16663,5532.508,28634
1705,85.25001,-14.2085,-0.5679585,0.01446746,0,0,0,0,0,14.2085,61.69561,0.5679585,0,95.96056,-14.2085,5541.671,28732.6
1710,85.50001,-14.24997,-0.5710272,0.01454562,0,0,0,0,0,14.24997,61.87566,0.5710272,0,96.43174,-14.24997,5545.422,28803.8
1715,85.75001,-14.29183,-0.5744457,0.0146327,0,0,0,0,0,14.29183,62.05745,0.5744457,0,96.90971,-14.29183,5552.02,28891.4
1720,86.00001,-14.33343,-0.5776244,0.01471367,0,0,0,0,0,14.33343,62.23809,0.5776244,0,97.38692,-14.33343,5556.165,28966.9
1725,86.25001,-14.3753,-0.5813683,0.01480904,0,0,0,0,0,14.3753,62.41988,0.5813683,0,97.8695,-14.3753,5565.255,29069.8
1730,86.50001,-14.4169,-0.5851473,0.0149053,0,0,0,0,0,14.4169,62.60051,0.5851473,0,98.35131,-14.4169,5574.507,29174.3
1735,86.75001,-14.45836,-0.5885273,0.0149914,0,0,0,0,0,14.45836,62.78057,0.5885273,0,98.83392,-14.45836,5579.713,29258.7
1740,87.00001,-14.50036,-0.5925393,0.0150936,0,0,0,0,0,14.50036,62.96294,0.5925393,0,99.32511,-14.50036,5590.224,29372.8
1745,87.25001,-14.5417,-0.5962949,0.01518926,0,0,0,0,0,14.5417,63.14241,0.5962949,0,99.81087,-14.5417,5598.395,29475
1750,87.50001,-14.58343,-0.6005132,0.01529671,0,0,0,0,0,14.58343,63.32363,0.6005132,0,100.3037,-14.58343,5610.28,29598.5
1755,87.75001,-14.6253,-0.605106,0.0154137,0,0,0,0,0,14.6253,63.50542,0.605106,0,100.8006,-14.6253,5625.167,29739.5
1760,88.00001,-14.66676,-0.6088091,0.01550803,0,0,0,0,0,14.66676,63.68547,0.6088091,0,101.2952,-14.66676,5631.669,29836.9
1765,88.25001,-14.70836,-0.6128796,0.01561172,0,0,0,0,0,14.70836,63.86611,0.6128796,0,101.7939,-14.70836,5641.122,29951.5
1770,88.50001,-14.75023,-0.6178482,0.01573828,0,0,0,0,0,14.75023,64.0479,0.6178482,0,102.2983,-14.75023,5658.244,30108.6
1775,88.75001,-14.79183,-0.6222884,0.01585139,0,0,0,0,0,14.79183,64.22853,0.6222885,0,102.802,-14.79183,5670.275,30239.7
1780,89.00001,-14.8333,-0.6271276,0.01597466,0,0,0,0,0,14.8333,64.40858,0.6271276,0,103.3066,-14.8333,5685.606,30389.6
1785,89.25001,-14.87516,-0.6325455,0.01611266,0,0,0,0,0,14.87516,64.59038,0.6325455,0,103.8187,-14.87516,5705.433,30565.9
1790,89.50001,-14.9169,-0.6381173,0.01625459,0,0,0,0,0,14.9169,64.77159,0.6381173,0,104.3317,-14.9169,5726.234,30748.9
1795,89.75001,-14.95823,-0.6437406,0.01639783,0,0,0,0,0,14.95823,64.95107,0.6437406,0,104.8425,-14.95823,5747.266,30934.1
1800,90.00001,-15.00023,-0.6496409,0.01654813,0,0,0,0,0,15.00023,65.13343,0.6496409,0,105.3642,-15.00023,5769.765,31130.3
1805,90.25001,-15.04183,-0.6555304,0.01669815,0,0,0,0,0,15.04183,65.31407,0.6555305,0,105.8836,-15.04183,5791.909,31325.6
1807,90.314,-15.05263,-0.6571267,0.01673881,0,0,0,0,0,15.05263,65.36096,0.6571267,0,106.0189,-15.05263,5798.164,31379.4