File: GFBaking/em/1_g13_1.csv
,Time sec,Extension mm,Load kgf,Compressive stress MPa,Cycle Count ,Total Cycle Count ,Repetitions Count ,Marked Data ,PIP Count ,Compressive extension mm,Compressive strain %,Compressive load kgf,Displacement (Strain 1) mm,True strain %,Corrected Position mm,True stress Pa,Elastic Modulus
0,0.0,-0.000266666,-0.01954255,0.0005134511,0,0,0,0,0,0.0,0.0,0.01954255,0,0.0,-0.000266666,513.4511,inf
5,0.25,-0.03639991,-0.02213752,0.00058163,0,0,0,0,0,0.03613325,0.153955,0.02213752,0,0.1540737,-0.03639991,580.7346,440382
10,0.5,-0.08226647,-0.02556019,0.0006715553,0,0,0,0,0,0.08199979,0.3493813,0.02556019,0,0.3499931,-0.08226647,669.2091,224057
15,0.7500001,-0.1251997,-0.02785591,0.000731872,0,0,0,0,0,0.124933,0.5323095,0.02785591,0,0.5337313,-0.1251997,727.9762,160268
20,1.0,-0.1666663,-0.03009315,0.0007906522,0,0,0,0,0,0.1663996,0.7089885,0.03009315,0,0.7115137,-0.1666663,785.0466,129994
25,1.25,-0.2083995,-0.03213306,0.0008442476,0,0,0,0,0,0.2081328,0.8868037,0.03213306,0,0.8907592,-0.2083995,836.7608,110973
30,1.5,-0.2503994,-0.03426393,0.000900233,0,0,0,0,0,0.2501327,1.065755,0.03426393,0,1.071475,-0.2503994,890.6387,98463.2
35,1.75,-0.2917326,-0.0358329,0.0009414554,0,0,0,0,0,0.291466,1.241866,0.0358329,0,1.249642,-0.2917326,929.7638,88369.3
40,2.0,-0.3335992,-0.03780548,0.0009932821,0,0,0,0,0,0.3333325,1.420249,0.03780548,0,1.430431,-0.3335992,979.175,81523.8
45,2.25,-0.3753324,-0.03962778,0.00104116,0,0,0,0,0,0.3750657,1.598065,0.03962778,0,1.610971,-0.3753324,1024.522,75945.1
50,2.5,-0.4170657,-0.04177923,0.001097686,0,0,0,0,0,0.416799,1.77588,0.04177923,0,1.791838,-0.4170657,1078.193,72051.2
55,2.75,-0.4583989,-0.04367599,0.001147521,0,0,0,0,0,0.4581322,1.951991,0.04367599,0,1.971294,-0.4583989,1125.121,68526.6
60,3.0,-0.5003988,-0.04564029,0.00119913,0,0,0,0,0,0.5001321,2.130942,0.04564029,0,2.153974,-0.5003988,1173.577,65595
65,3.25,-0.5419987,-0.04741265,0.001245696,0,0,0,0,0,0.5417321,2.308189,0.04741265,0,2.335245,-0.5419987,1216.943,62909.6
70,3.5,-0.5833319,-0.04938816,0.001297599,0,0,0,0,0,0.5830653,2.4843,0.04938816,0,2.51568,-0.5833319,1265.363,60885.4
75,3.75,-0.6251985,-0.05130352,0.001347923,0,0,0,0,0,0.6249318,2.662683,0.05130352,0,2.698775,-0.6251985,1312.032,59009.5
80,4.0,-0.6669317,-0.05332482,0.001401029,0,0,0,0,0,0.6666651,2.840499,0.05332482,0,2.881622,-0.6669317,1361.233,57494.9
85,4.25,-0.7085316,-0.05569755,0.001463369,0,0,0,0,0,0.7082649,3.017746,0.05569755,0,3.064217,-0.7085316,1419.208,56525.9
90,4.5,-0.7502649,-0.05749389,0.001510565,0,0,0,0,0,0.7499982,3.195561,0.05749389,0,3.247734,-0.7502649,1462.294,55102.2
95,4.75,-0.7918648,-0.05955008,0.001564589,0,0,0,0,0,0.7915981,3.372808,0.05955008,0,3.431,-0.7918648,1511.818,54073.6
100,5.0,-0.833598,-0.06162715,0.001619161,0,0,0,0,0,0.8333313,3.550623,0.06162715,0,3.615191,-0.833598,1561.67,53157.2
105,5.25,-0.8751979,-0.06403188,0.001682341,0,0,0,0,0,0.8749312,3.72787,0.06403188,0,3.799132,-0.8751979,1619.626,52605.3
110,5.5,-0.9169311,-0.06580086,0.001728818,0,0,0,0,0,0.9166644,3.905686,0.06580086,0,3.984004,-0.9169311,1661.296,51597.5
115,5.75,-0.9586643,-0.06796574,0.001785697,0,0,0,0,0,0.9583976,4.083501,0.06796574,0,4.169217,-0.9586643,1712.778,50974.3
120,6.0,-0.9999976,-0.06997671,0.001838533,0,0,0,0,0,0.999731,4.259612,0.06997672,0,4.352995,-0.9999976,1760.218,50312.7
125,6.25,-1.041997,-0.07221387,0.00189731,0,0,0,0,0,1.041731,4.438563,0.07221387,0,4.540083,-1.041997,1813.097,49827.9
130,6.5,-1.083464,-0.0740981,0.001946816,0,0,0,0,0,1.083197,4.615242,0.0740981,0,4.725139,-1.083464,1856.966,49170.8
135,6.75,-1.125197,-0.07600585,0.001996939,0,0,0,0,0,1.124931,4.793057,0.07600585,0,4.911732,-1.125197,1901.225,48565.6
140,7.0,-1.166931,-0.0780466,0.002050557,0,0,0,0,0,1.166664,4.970873,0.0780466,0,5.098674,-1.166931,1948.626,48085.7
145,7.25,-1.208397,-0.08014835,0.002105777,0,0,0,0,0,1.20813,5.147552,0.08014835,0,5.284768,-1.208397,1997.381,47685.7
150,7.5,-1.25013,-0.081978,0.002153849,0,0,0,0,0,1.249864,5.325367,0.081978,0,5.472409,-1.25013,2039.148,47145.7
155,7.75,-1.291864,-0.0840605,0.002208563,0,0,0,0,0,1.291597,5.503182,0.0840605,0,5.660402,-1.291864,2087.022,46781.3
160,8.0,-1.333863,-0.08598519,0.002259131,0,0,0,0,0,1.333597,5.682134,0.08598519,0,5.849955,-1.333863,2130.764,46345.4
165,8.25,-1.375063,-0.08896639,0.002337458,0,0,0,0,0,1.374797,5.857677,0.08896639,0,6.036247,-1.375063,2200.537,46515.2
170,8.5,-1.41693,-0.08896262,0.002337359,0,0,0,0,0,1.416663,6.03606,0.08896262,0,6.225909,-1.41693,2196.274,45138.6
175,8.75,-1.458796,-0.09281366,0.002438539,0,0,0,0,0,1.45853,6.214443,0.09281366,0,6.415932,-1.458796,2286.997,45740.8
180,9.0,-1.50013,-0.09288524,0.00244042,0,0,0,0,0,1.499863,6.390554,0.09288523,0,6.603889,-1.50013,2284.463,44514.6
185,9.25,-1.541996,-0.09657042,0.002537242,0,0,0,0,0,1.54173,6.568937,0.09657042,0,6.794632,-1.541996,2370.572,45023.9
190,9.5,-1.583596,-0.09682274,0.002543872,0,0,0,0,0,1.58333,6.746184,0.09682274,0,6.984521,-1.583596,2372.257,43955.5
195,9.75,-1.625196,-0.1002565,0.002634088,0,0,0,0,0,1.624929,6.923432,0.1002565,0,7.174772,-1.625196,2451.718,44349.2
200,10.0,-1.666929,-0.1007382,0.002646745,0,0,0,0,0,1.666663,7.101246,0.1007382,0,7.365996,-1.666929,2458.793,43446.4
205,10.25,-1.708396,-0.1032062,0.002711586,0,0,0,0,0,1.708129,7.277925,0.1032062,0,7.556361,-1.708396,2514.239,43430.3
210,10.5,-1.750396,-0.1048991,0.002756067,0,0,0,0,0,1.750129,7.456877,0.1048991,0,7.749546,-1.750396,2550.55,43083.3
215,10.75,-1.791729,-0.1077564,0.002831137,0,0,0,0,0,1.791462,7.632988,0.1077564,0,7.940029,-1.791729,2615.037,43235.7
220,11.0,-1.833596,-0.1084243,0.002848684,0,0,0,0,0,1.833329,7.811371,0.1084243,0,8.13334,-1.833596,2626.163,42510.2
225,11.25,-1.875329,-0.111679,0.002934198,0,0,0,0,0,1.875062,7.989186,0.111679,0,8.326407,-1.875329,2699.779,42811.8
230,11.5,-1.916529,-0.1126056,0.002958542,0,0,0,0,0,1.916262,8.164729,0.1126056,0,8.517375,-1.916529,2716.985,42238.9
235,11.75,-1.958662,-0.1150022,0.003021509,0,0,0,0,0,1.958395,8.344249,0.1150022,0,8.713046,-1.958662,2769.387,42209.8
240,12.0,-2.000395,-0.1164301,0.003059026,0,0,0,0,0,2.000128,8.522064,0.1164301,0,8.907238,-2.000395,2798.334,41842.2
245,12.25,-2.041728,-0.1185093,0.003113654,0,0,0,0,0,2.041462,8.698175,0.1185093,0,9.099942,-2.041728,2842.823,41727.1
250,12.5,-2.083595,-0.119675,0.003144279,0,0,0,0,0,2.083328,8.876558,0.119675,0,9.29551,-2.083595,2865.176,41290.8
255,12.75,-2.125328,-0.1215969,0.003194774,0,0,0,0,0,2.125062,9.054374,0.1215969,0,9.490837,-2.125328,2905.507,41130
260,13.0,-2.166928,-0.1234533,0.003243548,0,0,0,0,0,2.166662,9.231621,0.1234533,0,9.685921,-2.166928,2944.116,40956.1
265,13.25,-2.208528,-0.1249558,0.003283025,0,0,0,0,0,2.208261,9.408868,0.1249558,0,9.881386,-2.208528,2974.129,40673.7
270,13.5,-2.250261,-0.1261174,0.003313544,0,0,0,0,0,2.249995,9.586683,0.1261174,0,10.07786,-2.250261,2995.885,40290.3
275,13.75,-2.291861,-0.1281793,0.003367718,0,0,0,0,0,2.291595,9.76393,0.1281793,0,10.2741,-2.291861,3038.897,40205.7
280,14.0,-2.333461,-0.1293425,0.003398279,0,0,0,0,0,2.333194,9.941177,0.1293425,0,10.47071,-2.333461,3060.45,39847.2
285,14.25,-2.375328,-0.1310977,0.003444395,0,0,0,0,0,2.375061,10.11956,0.1310977,0,10.66898,-2.375328,3095.838,39676
290,14.5,-2.416661,-0.1322696,0.003475183,0,0,0,0,0,2.416394,10.29567,0.1322695,0,10.86512,-2.416661,3117.39,39345.9
295,14.75,-2.458661,-0.1342511,0.003527245,0,0,0,0,0,2.458394,10.47462,0.1342511,0,11.06481,-2.458661,3157.78,39253.1
300,15.0,-2.500394,-0.1353636,0.003556474,0,0,0,0,0,2.500127,10.65244,0.1353636,0,11.26362,-2.500394,3177.623,38917.7
305,15.25,-2.541727,-0.1370651,0.003601179,0,0,0,0,0,2.541461,10.82855,0.1370651,0,11.46093,-2.541727,3211.224,38766
310,15.5,-2.583594,-0.138649,0.003642793,0,0,0,0,0,2.583327,11.00693,0.138649,0,11.66117,-2.583594,3241.833,38578.4
315,15.75,-2.624927,-0.1401088,0.003681148,0,0,0,0,0,2.62466,11.18304,0.1401088,0,11.85926,-2.624927,3269.484,38370.7
320,16.0,-2.667194,-0.1418081,0.003725794,0,0,0,0,0,2.666927,11.36313,0.1418081,0,12.06223,-2.667194,3302.427,38220.6
325,16.25,-2.708527,-0.1428446,0.003753027,0,0,0,0,0,2.70826,11.53924,0.1428446,0,12.26111,-2.708527,3319.956,37912.4
330,16.5,-2.75026,-0.1444231,0.0037945,0,0,0,0,0,2.749993,11.71706,0.1444231,0,12.46233,-2.75026,3349.896,37749.6
335,16.75,-2.792126,-0.1457572,0.00382955,0,0,0,0,0,2.79186,11.89544,0.1457572,0,12.66459,-2.792126,3374.008,37527
340,17.0,-2.83346,-0.1473267,0.003870786,0,0,0,0,0,2.833193,12.07155,0.1473267,0,12.86468,-2.83346,3403.522,37377.7
345,17.25,-2.875193,-0.1487267,0.003907569,0,0,0,0,0,2.874926,12.24937,0.1487267,0,13.06711,-2.875193,3428.917,37185.2
350,17.5,-2.916793,-0.1500944,0.003943505,0,0,0,0,0,2.916526,12.42661,0.1500944,0,13.2693,-2.916793,3453.461,36991.8
355,17.75,-2.958526,-0.1514837,0.003980006,0,0,0,0,0,2.95826,12.60443,0.1514837,0,13.47256,-2.958526,3478.349,36807.5
360,18.0,-3.000126,-0.1526964,0.004011868,0,0,0,0,0,2.999859,12.78168,0.1526964,0,13.67557,-3.000126,3499.084,36587.7
365,18.25,-3.041993,-0.1541761,0.004050746,0,0,0,0,0,3.041726,12.96006,0.1541761,0,13.88031,-3.041993,3525.767,36433.8
370,18.5,-3.083726,-0.1554009,0.004082924,0,0,0,0,0,3.083459,13.13787,0.1554009,0,14.08481,-3.083726,3546.514,36226.2
375,18.75,-3.124926,-0.1566566,0.004115917,0,0,0,0,0,3.124659,13.31342,0.1566567,0,14.28711,-3.124926,3567.948,36037.4
380,19.0,-3.167059,-0.1580062,0.004151375,0,0,0,0,0,3.166792,13.49294,0.1580062,0,14.49441,-3.167059,3591.233,35864.3
385,19.25,-3.208525,-0.1592771,0.004184764,0,0,0,0,0,3.208259,13.66962,0.1592771,0,14.69886,-3.208525,3612.723,35685.5
390,19.5,-3.250125,-0.1603715,0.00421352,0,0,0,0,0,3.249859,13.84686,0.1603715,0,14.90438,-3.250125,3630.079,35470.7
395,19.75,-3.291992,-0.1616167,0.004246236,0,0,0,0,0,3.291725,14.02525,0.1616167,0,15.11165,-3.291992,3650.691,35291.5
400,20.0,-3.333592,-0.1630411,0.004283658,0,0,0,0,0,3.333325,14.20249,0.1630411,0,15.31802,-3.333592,3675.272,35158.2
405,20.25,-3.375192,-0.1641372,0.004312457,0,0,0,0,0,3.374925,14.37974,0.1641372,0,15.52483,-3.375192,3692.337,34958.3
410,20.5,-3.416925,-0.1654127,0.004345971,0,0,0,0,0,3.416658,14.55756,0.1654127,0,15.73272,-3.416925,3713.303,34799.6
415,20.75,-3.458525,-0.1664546,0.004373343,0,0,0,0,0,3.458258,14.7348,0.1664546,0,15.94038,-3.458525,3728.94,34597.6
420,21.0,-3.500391,-0.1677541,0.004407487,0,0,0,0,0,3.500125,14.91319,0.1677541,0,16.14981,-3.500391,3750.19,34450.6
425,21.25,-3.541725,-0.1691703,0.004444695,0,0,0,0,0,3.541458,15.0893,0.1691703,0,16.357,-3.541725,3774.021,34336
430,21.5,-3.583725,-0.1705834,0.004481821,0,0,0,0,0,3.583458,15.26825,0.1705834,0,16.56798,-3.583725,3797.525,34217
435,21.75,-3.625458,-0.172063,0.004520697,0,0,0,0,0,3.625191,15.44606,0.172063,0,16.77806,-3.625458,3822.427,34116.5
440,22.0,-3.666791,-0.173431,0.004556639,0,0,0,0,0,3.666525,15.62218,0.173431,0,16.98656,-3.666791,3844.792,34000
445,22.25,-3.708658,-0.1749992,0.00459784,0,0,0,0,0,3.708391,15.80056,0.1749992,0,17.19819,-3.708658,3871.356,33920.2
450,22.5,-3.750257,-0.1762948,0.00463188,0,0,0,0,0,3.749991,15.97781,0.1762948,0,17.40892,-3.750257,3891.808,33792.2
455,22.75,-3.791858,-0.1776349,0.00466709,0,0,0,0,0,3.791591,16.15505,0.1776349,0,17.62009,-3.791858,3913.119,33675.5
460,23.0,-3.833724,-0.1792845,0.00471043,0,0,0,0,0,3.833457,16.33344,0.1792845,0,17.83307,-3.833724,3941.055,33617
465,23.25,-3.875057,-0.180517,0.004742812,0,0,0,0,0,3.874791,16.50955,0.180517,0,18.04379,-3.875057,3959.796,33487.1
470,23.5,-3.916791,-0.1819708,0.004781009,0,0,0,0,0,3.916524,16.68736,0.1819708,0,18.25699,-3.916791,3983.185,33397.1
475,23.75,-3.958524,-0.1833889,0.004818267,0,0,0,0,0,3.958257,16.86518,0.1833889,0,18.47065,-3.958524,4005.658,33302.5
480,24.0,-4.00039,-0.184609,0.004850323,0,0,0,0,0,4.000124,17.04356,0.184609,0,18.68545,-4.00039,4023.656,33173.2
485,24.25,-4.041723,-0.1859824,0.004886407,0,0,0,0,0,4.041457,17.21967,0.1859824,0,18.89797,-4.041723,4044.984,33078.1
490,24.5,-4.08359,-0.1872678,0.00492018,0,0,0,0,0,4.083323,17.39805,0.1872678,0,19.11369,-4.08359,4064.164,32965.3
495,24.75,-4.125457,-0.1887262,0.004958496,0,0,0,0,0,4.12519,17.57644,0.1887262,0,19.32989,-4.125457,4086.969,32884.8
500,25.0,-4.166657,-0.1899217,0.004989907,0,0,0,0,0,4.16639,17.75198,0.1899217,0,19.54309,-4.166657,4104.1,32765.9
505,25.25,-4.208656,-0.1912903,0.005025866,0,0,0,0,0,4.20839,17.93093,0.1912903,0,19.7609,-4.208656,4124.681,32672.6
510,25.5,-4.250256,-0.1925341,0.005058542,0,0,0,0,0,4.24999,18.10818,0.1925341,0,19.97711,-4.250256,4142.533,32563.2
515,25.75,-4.29199,-0.1938077,0.005092005,0,0,0,0,0,4.291723,18.286,0.1938077,0,20.19448,-4.29199,4160.881,32459.9
520,26.0,-4.333723,-0.194929,0.005121467,0,0,0,0,0,4.333456,18.46381,0.194929,0,20.41232,-4.333723,4175.849,32333.3
525,26.25,-4.37519,-0.1964273,0.005160832,0,0,0,0,0,4.374923,18.64049,0.1964273,0,20.62924,-4.37519,4198.828,32273
530,26.5,-4.416923,-0.1975738,0.005190953,0,0,0,0,0,4.416656,18.8183,0.1975738,0,20.84804,-4.416923,4214.104,32154.6
535,26.75,-4.458256,-0.1988235,0.005223787,0,0,0,0,0,4.457989,18.99442,0.1988235,0,21.06521,-4.458256,4231.559,32058
540,27.0,-4.500256,-0.2000607,0.005256293,0,0,0,0,0,4.499989,19.17337,0.2000607,0,21.28637,-4.500256,4248.485,31956.4
545,27.25,-4.541989,-0.2013681,0.005290644,0,0,0,0,0,4.541722,19.35118,0.2013681,0,21.5066,-4.541989,4266.842,31869.7
550,27.5,-4.583189,-0.202294,0.005314969,0,0,0,0,0,4.582922,19.52672,0.202294,0,21.7245,-4.583189,4277.13,31728.4
555,27.75,-4.625322,-0.203443,0.005345157,0,0,0,0,0,4.625056,19.70625,0.203443,0,21.94784,-4.625322,4291.828,31617.9
560,28.0,-4.667055,-0.2044216,0.005370868,0,0,0,0,0,4.666789,19.88406,0.2044216,0,22.16954,-4.667055,4302.922,31485.9
565,28.25,-4.708522,-0.2054449,0.005397754,0,0,0,0,0,4.708255,20.06074,0.2054449,0,22.39031,-4.708522,4314.925,31364.8
570,28.5,-4.750255,-0.2065328,0.005426337,0,0,0,0,0,4.749988,20.23855,0.2065328,0,22.61299,-4.750255,4328.125,31253.9
575,28.75,-4.791989,-0.2075703,0.005453597,0,0,0,0,0,4.791722,20.41637,0.2075703,0,22.83617,-4.791989,4340.171,31137.3
580,29.0,-4.833588,-0.2082641,0.005471824,0,0,0,0,0,4.833322,20.59362,0.2082641,0,23.05914,-4.833588,4344.978,30972.5
585,29.25,-4.875188,-0.2091024,0.00549385,0,0,0,0,0,4.874921,20.77086,0.2091024,0,23.28261,-4.875188,4352.73,30831.8
590,29.5,-4.916921,-0.2100557,0.005518897,0,0,0,0,0,4.916655,20.94868,0.2100557,0,23.50729,-4.916921,4362.761,30709.4
595,29.75,-4.958521,-0.2110576,0.00554522,0,0,0,0,0,4.958255,21.12593,0.2110576,0,23.73176,-4.958521,4373.741,30597
600,30.0,-5.000121,-0.2120529,0.005571371,0,0,0,0,0,4.999854,21.30317,0.2120529,0,23.95673,-5.000121,4384.493,30485.6
605,30.25,-5.041988,-0.2132793,0.005603593,0,0,0,0,0,5.041721,21.48156,0.2132793,0,24.18366,-5.041988,4399.854,30407.3
610,30.5,-5.083454,-0.2142589,0.005629329,0,0,0,0,0,5.083188,21.65823,0.2142589,0,24.40893,-5.083454,4410.116,30297.7
615,30.75,-5.125187,-0.2150985,0.005651388,0,0,0,0,0,5.12492,21.83605,0.2150985,0,24.63616,-5.125187,4417.349,30168.8
620,31.0,-5.167054,-0.2166551,0.005692285,0,0,0,0,0,5.166787,22.01443,0.2166551,0,24.86464,-5.167054,4439.161,30140.9
625,31.25,-5.208388,-0.2173594,0.005710791,0,0,0,0,0,5.208121,22.19054,0.2173594,0,25.09072,-5.208388,4443.535,29998.9
630,31.5,-5.250254,-0.2187828,0.00574819,0,0,0,0,0,5.249987,22.36893,0.2187828,0,25.32024,-5.250254,4462.381,29954.5
635,31.75,-5.291854,-0.2197299,0.005773071,0,0,0,0,0,5.291587,22.54618,0.2197299,0,25.54882,-5.291854,4471.464,29847.7
640,32.0,-5.333854,-0.220985,0.005806047,0,0,0,0,0,5.333587,22.72513,0.220985,0,25.78013,-5.333854,4486.615,29781.8
645,32.25,-5.37532,-0.221666,0.005823941,0,0,0,0,0,5.375053,22.9018,0.221666,0,26.00903,-5.37532,4490.153,29643.1
650,32.5,-5.416787,-0.2229454,0.005857555,0,0,0,0,0,5.41652,23.07848,0.2229454,0,26.23845,-5.416787,4505.72,29585.9
655,32.75,-5.458787,-0.2239646,0.005884334,0,0,0,0,0,5.45852,23.25743,0.2239646,0,26.47137,-5.458787,4515.788,29492.5
660,33.0,-5.499986,-0.224549,0.005899686,0,0,0,0,0,5.49972,23.43298,0.224549,0,26.70037,-5.499986,4517.214,29348
665,33.25,-5.541853,-0.2250582,0.005913066,0,0,0,0,0,5.541586,23.61136,0.2250582,0,26.93362,-5.541853,4516.911,29192.3
670,33.5,-5.583587,-0.2260902,0.005940178,0,0,0,0,0,5.58332,23.78918,0.2260901,0,27.16667,-5.583587,4527.059,29106.9
675,33.75,-5.625186,-0.2269287,0.005962209,0,0,0,0,0,5.62492,23.96642,0.2269287,0,27.39952,-5.625186,4533.28,28998.8
680,34.0,-5.66692,-0.2272406,0.005970403,0,0,0,0,0,5.666653,24.14424,0.2272406,0,27.63365,-5.66692,4528.895,28824.8
685,34.25,-5.708653,-0.2278956,0.005987612,0,0,0,0,0,5.708386,24.32205,0.2278956,0,27.86834,-5.708653,4531.302,28696.6
690,34.5,-5.750253,-0.2284964,0.006003398,0,0,0,0,0,5.749986,24.4993,0.2284964,0,28.10283,-5.750253,4532.607,28564.1
695,34.75,-5.791719,-0.2294272,0.006027855,0,0,0,0,0,5.791452,24.67598,0.2294272,0,28.33711,-5.791719,4540.423,28475.1
700,35.0,-5.833586,-0.2288655,0.006013095,0,0,0,0,0,5.833319,24.85436,0.2288655,0,28.57421,-5.833586,4518.579,28201.5
705,35.25,-5.875319,-0.2301798,0.006047628,0,0,0,0,0,5.875052,25.03218,0.2301798,0,28.81112,-5.875319,4533.775,28162
710,35.5,-5.916785,-0.2299429,0.006041402,0,0,0,0,0,5.916519,25.20886,0.2299429,0,29.04707,-5.916785,4518.434,27935.8
715,35.75,-5.958785,-0.2312097,0.006074686,0,0,0,0,0,5.958519,25.38781,0.2312097,0,29.28663,-5.958785,4532.456,27891.7
720,36.0,-6.000252,-0.2315258,0.006082992,0,0,0,0,0,5.999985,25.56449,0.2315258,0,29.5237,-6.000252,4527.906,27736.8
725,36.25,-6.041852,-0.2329966,0.006121635,0,0,0,0,0,6.041585,25.74174,0.2329966,0,29.76211,-6.041852,4545.82,27720.8
730,36.5,-6.083585,-0.2330596,0.00612329,0,0,0,0,0,6.083319,25.91955,0.2330596,0,30.00186,-6.083585,4536.161,27538.1
735,36.75,-6.125185,-0.2342652,0.006154966,0,0,0,0,0,6.124918,26.0968,0.2342652,0,30.2414,-6.125185,4548.717,27492.5
740,37.0,-6.166918,-0.2356376,0.006191022,0,0,0,0,0,6.166651,26.27461,0.2356376,0,30.4823,-6.166918,4564.355,27466.4
745,37.25,-6.208385,-0.2353322,0.006182999,0,0,0,0,0,6.208118,26.45129,0.2353322,0,30.72223,-6.208385,4547.516,27247.6
750,37.5,-6.250252,-0.236225,0.006206457,0,0,0,0,0,6.249985,26.62967,0.236225,0,30.96506,-6.250252,4553.697,27167.8
755,37.75,-6.291985,-0.2378303,0.006248634,0,0,0,0,0,6.291718,26.80749,0.2378303,0,31.20771,-6.291985,4573.532,27171
760,38.0,-6.333451,-0.2381905,0.006258097,0,0,0,0,0,6.333184,26.98417,0.2381905,0,31.44939,-6.333451,4569.401,27034
765,38.25,-6.375318,-0.2383096,0.006261226,0,0,0,0,0,6.375051,27.16255,0.2383096,0,31.694,-6.375318,4560.517,26869.8
770,38.5,-6.416918,-0.239751,0.006299097,0,0,0,0,0,6.416651,27.3398,0.239751,0,31.93764,-6.416918,4576.937,26857.1
775,38.75,-6.458518,-0.2399922,0.006305432,0,0,0,0,0,6.458251,27.51705,0.2399922,0,32.18188,-6.458518,4570.363,26711
780,39.0,-6.500384,-0.2405648,0.006320477,0,0,0,0,0,6.500117,27.69543,0.2405648,0,32.42829,-6.500384,4569.994,26602.2
785,39.25,-6.541717,-0.2409989,0.006331882,0,0,0,0,0,6.541451,27.87154,0.2409989,0,32.67215,-6.541717,4567.089,26481.8
790,39.5,-6.583317,-0.2421699,0.00636265,0,0,0,0,0,6.58305,28.04879,0.2421699,0,32.91819,-6.583317,4578.003,26442.4
795,39.75,-6.625184,-0.2419258,0.006356236,0,0,0,0,0,6.624917,28.22717,0.2419258,0,33.16642,-6.625184,4562.051,26248.8
800,40.0,-6.667051,-0.2438102,0.006405745,0,0,0,0,0,6.666784,28.40556,0.2438102,0,33.41527,-6.667051,4586.158,26287.1
805,40.25,-6.708517,-0.242989,0.006384169,0,0,0,0,0,6.708251,28.58223,0.242989,0,33.66235,-6.708517,4559.431,26036.6
810,40.5,-6.75025,-0.2452158,0.006442675,0,0,0,0,0,6.749984,28.76005,0.2452158,0,33.91164,-6.75025,4589.759,26112.8
815,40.75,-6.791983,-0.2444375,0.006422228,0,0,0,0,0,6.791717,28.93786,0.2444375,0,34.16156,-6.791983,4563.772,25869.9
820,41.0,-6.833317,-0.2462517,0.006469892,0,0,0,0,0,6.83305,29.11398,0.2462517,0,34.40969,-6.833317,4586.249,25904.3
825,41.25,-6.875317,-0.2452674,0.006444031,0,0,0,0,0,6.87505,29.29293,0.2452674,0,34.66246,-6.875317,4556.386,25643.1
830,41.5,-6.91705,-0.2473856,0.006499684,0,0,0,0,0,6.916783,29.47074,0.2473856,0,34.91425,-6.91705,4584.179,25708.5
835,41.75,-6.958383,-0.2463254,0.006471827,0,0,0,0,0,6.958117,29.64685,0.2463253,0,35.16427,-6.958383,4553.134,25446.3
840,42.0,-7.000383,-0.2484495,0.006527637,0,0,0,0,0,7.000116,29.8258,0.2484495,0,35.41895,-7.000383,4580.717,25511.7
845,42.25,-7.04185,-0.2479058,0.00651335,0,0,0,0,0,7.041583,30.00248,0.2479058,0,35.67104,-7.04185,4559.183,25306
850,42.5,-7.083583,-0.2486956,0.006534101,0,0,0,0,0,7.083316,30.1803,0.2486956,0,35.92539,-7.083583,4562.09,25237.1
855,42.75,-7.125049,-0.2486476,0.006532841,0,0,0,0,0,7.124783,30.35698,0.2486476,0,36.17877,-7.125049,4549.668,25085.3
860,43.0,-7.166916,-0.2493548,0.00655142,0,0,0,0,0,7.16665,30.53536,0.2493547,0,36.43524,-7.166916,4550.92,25009.7
865,43.25,-7.208782,-0.2494919,0.006555023,0,0,0,0,0,7.208516,30.71374,0.2494919,0,36.69236,-7.208782,4541.73,24878.1
870,43.5,-7.249982,-0.2509438,0.006593171,0,0,0,0,0,7.249715,30.88929,0.2509438,0,36.94604,-7.249982,4556.587,24880.7
875,43.75,-7.291982,-0.2513968,0.006605072,0,0,0,0,0,7.291716,31.06824,0.2513968,0,37.20531,-7.291982,4552.993,24782.1
880,44.0,-7.333715,-0.2528421,0.006643044,0,0,0,0,0,7.333448,31.24605,0.2528421,0,37.4636,-7.333715,4567.355,24782.7
885,44.25,-7.375182,-0.2530468,0.006648423,0,0,0,0,0,7.374915,31.42273,0.2530468,0,37.72091,-7.375182,4559.307,24663.3
890,44.5,-7.416915,-0.2541955,0.006678605,0,0,0,0,0,7.416649,31.60055,0.2541955,0,37.98054,-7.416915,4568.129,24635.8
895,44.75,-7.458649,-0.2552704,0.006706845,0,0,0,0,0,7.458382,31.77836,0.2552704,0,38.24084,-7.458649,4575.52,24601.6
900,45.0,-7.500382,-0.2562424,0.006732384,0,0,0,0,0,7.500115,31.95618,0.2562425,0,38.50183,-7.500382,4580.971,24557.9
905,45.25,-7.541848,-0.2567622,0.00674604,0,0,0,0,0,7.541582,32.13286,0.2567622,0,38.76182,-7.541848,4578.344,24472.4
910,45.5,-7.583581,-0.2578146,0.006773691,0,0,0,0,0,7.583315,32.31067,0.2578146,0,39.02417,-7.583581,4585.066,24437.4
915,45.75,-7.625048,-0.2584147,0.006789456,0,0,0,0,0,7.624781,32.48735,0.2584147,0,39.28552,-7.625048,4583.741,24361.1
920,46.0,-7.666781,-0.2590312,0.006805655,0,0,0,0,0,7.666514,32.66516,0.2590312,0,39.54925,-7.666781,4582.576,24286.3
925,46.25,-7.708648,-0.2596314,0.006821423,0,0,0,0,0,7.708381,32.84355,0.2596314,0,39.81452,-7.708648,4581.026,24210.4
930,46.5,-7.750114,-0.2606441,0.006848032,0,0,0,0,0,7.749847,33.02023,0.2606441,0,40.07795,-7.750114,4586.796,24174.8
935,46.75,-7.791847,-0.261315,0.006865659,0,0,0,0,0,7.791581,33.19804,0.261315,0,40.34378,-7.791847,4586.394,24107.2
940,47.0,-7.833715,-0.2623521,0.006892905,0,0,0,0,0,7.833448,33.37643,0.262352,0,40.61118,-7.833715,4592.299,24073.5
945,47.25,-7.875048,-0.2633013,0.006917844,0,0,0,0,0,7.874781,33.55254,0.2633013,0,40.87586,-7.875048,4596.731,24033.8
950,47.5,-7.916914,-0.2641164,0.006939261,0,0,0,0,0,7.916648,33.73092,0.2641164,0,41.14468,-7.916914,4598.584,23980.7
955,47.75,-7.958514,-0.2651157,0.006965516,0,0,0,0,0,7.958247,33.90817,0.2651157,0,41.4125,-7.958514,4603.637,23945.6
960,48.0,-8.000247,-0.2660323,0.006989597,0,0,0,0,0,7.99998,34.08598,0.2660323,0,41.6819,-8.000247,4607.124,23903
965,48.25,-8.041847,-0.2669238,0.00701302,0,0,0,0,0,8.041581,34.26323,0.2669238,0,41.95118,-8.041847,4610.132,23859.1
970,48.5,-8.083447,-0.2680145,0.007041677,0,0,0,0,0,8.08318,34.44048,0.2680145,0,42.22117,-8.083447,4616.49,23833.254
975,48.75,-8.125447,-0.2692396,0.007073866,0,0,0,0,0,8.12518,34.61943,0.2692396,0,42.49451,-8.125447,4624.934,23818.4
980,49.0,-8.166647,-0.2698846,0.007090811,0,0,0,0,0,8.16638,34.79497,0.2698846,0,42.76336,-8.166647,4623.565,23755
985,49.25,-8.208513,-0.2713778,0.007130044,0,0,0,0,0,8.208246,34.97335,0.2713778,0,43.0373,-8.208513,4636.428,23764.6
990,49.5,-8.25038,-0.2723885,0.007156597,0,0,0,0,0,8.250113,35.15174,0.2723885,0,43.31201,-8.25038,4640.928,23732.1
995,49.75,-8.291847,-0.2736839,0.007190631,0,0,0,0,0,8.291581,35.32842,0.2736838,0,43.58484,-8.291847,4650.294,23725.7
1000,50.0,-8.333446,-0.2752289,0.007231226,0,0,0,0,0,8.333179,35.50566,0.2752289,0,43.85928,-8.333446,4663.731,23740.5
1005,50.25,-8.375446,-0.2763079,0.007259574,0,0,0,0,0,8.375179,35.68462,0.2763079,0,44.13713,-8.375446,4669.023,23714.1
1010,50.5,-8.41718,-0.2776625,0.007295164,0,0,0,0,0,8.416913,35.86243,0.2776625,0,44.414,-8.41718,4678.94,23712.2
1015,50.75,-8.45838,-0.2797983,0.007351278,0,0,0,0,0,8.458113,36.03798,0.2797983,0,44.68806,-8.45838,4702.026,23778.2
1020,51.0,-8.50038,-0.280929,0.007380986,0,0,0,0,0,8.500113,36.21693,0.280929,0,44.96823,-8.50038,4707.82,23756.3
1025,51.25,-8.541979,-0.2817199,0.007401765,0,0,0,0,0,8.541713,36.39417,0.2817199,0,45.24651,-8.541979,4707.954,23707.2
1030,51.5,-8.58318,-0.2844264,0.007472876,0,0,0,0,0,8.582912,36.56972,0.2844264,0,45.52288,-8.58318,4740.066,23820
1035,51.75,-8.625446,-0.2857243,0.007506976,0,0,0,0,0,8.625179,36.74981,0.2857243,0,45.8072,-8.625446,4748.177,23811.5
1040,52.0,-8.666912,-0.2873462,0.007549588,0,0,0,0,0,8.666646,36.92648,0.2873462,0,46.08692,-8.666912,4761.791,23832.1
1045,52.25,-8.708512,-0.2898418,0.007615156,0,0,0,0,0,8.708246,37.10373,0.2898418,0,46.36834,-8.708512,4789.649,23924.2
1050,52.5,-8.750246,-0.2904008,0.007629843,0,0,0,0,0,8.74998,37.28155,0.2904008,0,46.65145,-8.750246,4785.32,23856
1055,52.75,-8.791845,-0.2925513,0.007686345,0,0,0,0,0,8.791579,37.45879,0.2925513,0,46.93445,-8.791845,4807.133,23919
1060,53.0,-8.833712,-0.2931253,0.007701427,0,0,0,0,0,8.833446,37.63718,0.2931253,0,47.22009,-8.833712,4802.827,23852.3
1065,53.25,-8.875045,-0.296116,0.007780003,0,0,0,0,0,8.874779,37.81329,0.2961161,0,47.50288,-8.875045,4838.128,23983.5
1070,53.5,-8.916912,-0.2955901,0.007766185,0,0,0,0,0,8.916644,37.99167,0.2955901,0,47.79014,-8.916912,4815.682,23828.4
1075,53.75,-8.958645,-0.2983742,0.007839333,0,0,0,0,0,8.958379,38.16949,0.2983742,0,48.07732,-8.958645,4847.1,23940.8
1080,54.0,-9.000111,-0.2986964,0.007847797,0,0,0,0,0,8.999845,38.34616,0.2986964,0,48.36348,-9.000111,4838.468,23856.3
1085,54.25,-9.041978,-0.3011029,0.007911026,0,0,0,0,0,9.041712,38.52455,0.3011029,0,48.65323,-9.041978,4863.338,23937.1
1090,54.5,-9.083578,-0.3012397,0.007914619,0,0,0,0,0,9.083312,38.7018,0.3012397,0,48.94197,-9.083578,4851.519,23838.3
1095,54.75,-9.125311,-0.3034555,0.007972836,0,0,0,0,0,9.125044,38.87961,0.3034555,0,49.23246,-9.125311,4873.028,23903.8
1100,55.0,-9.167044,-0.3039234,0.007985129,0,0,0,0,0,9.166778,39.05743,0.3039234,0,49.52382,-9.167044,4866.343,23831.7
1105,55.25,-9.208377,-0.3059802,0.008039168,0,0,0,0,0,9.208111,39.23354,0.3059802,0,49.81321,-9.208377,4885.118,23885.3
1110,55.5,-9.249978,-0.3069248,0.008063986,0,0,0,0,0,9.249711,39.41079,0.3069248,0,50.10533,-9.249978,4885.906,23851.2
1115,55.75,-9.291844,-0.3087903,0.008113,0,0,0,0,0,9.291578,39.58917,0.3087903,0,50.40018,-9.291844,4901.131,23888.1
1120,56.0,-9.333711,-0.3104795,0.008157382,0,0,0,0,0,9.333445,39.76755,0.3104795,0,50.6959,-9.333711,4913.391,23911
1125,56.25,-9.375044,-0.3124565,0.008209323,0,0,0,0,0,9.374777,39.94366,0.3124565,0,50.98871,-9.375044,4930.219,23957.2
1130,56.5,-9.417044,-0.3139671,0.008249012,0,0,0,0,0,9.416777,40.12261,0.3139671,0,51.28712,-9.417044,4939.293,23965.6
1135,56.75,-9.458777,-0.3157733,0.008296467,0,0,0,0,0,9.458511,40.30043,0.3157733,0,51.58454,-9.458777,4952.955,23997.2
1140,57.0,-9.500111,-0.3171804,0.008333436,0,0,0,0,0,9.499845,40.47654,0.3171804,0,51.87997,-9.500111,4960.349,23999.2
1145,57.25,-9.54211,-0.3191896,0.008386225,0,0,0,0,0,9.541844,40.65549,0.3191895,0,52.18106,-9.54211,4976.764,24044.9
1150,57.5,-9.583577,-0.3206554,0.008424737,0,0,0,0,0,9.58331,40.83217,0.3206554,0,52.47922,-9.583577,4984.734,24050.8
1155,57.75,-9.625177,-0.3224467,0.008471801,0,0,0,0,0,9.62491,41.00942,0.3224467,0,52.77924,-9.625177,4997.564,24080.7
1160,58.0,-9.666909,-0.3236902,0.008504473,0,0,0,0,0,9.666643,41.18723,0.3236902,0,53.08112,-9.666909,5001.716,24069.2
1165,58.25,-9.708377,-0.3256884,0.008556973,0,0,0,0,0,9.70811,41.36391,0.3256884,0,53.38198,-9.708377,5017.474,24114.3
1170,58.5,-9.750376,-0.3268714,0.008588052,0,0,0,0,0,9.75011,41.54286,0.3268714,0,53.68764,-9.750376,5020.33,24097.7
1175,58.75,-9.791709,-0.3288643,0.008640414,0,0,0,0,0,9.791442,41.71897,0.3288643,0,53.98935,-9.791709,5035.722,24142.2
1180,59.0,-9.833443,-0.3305174,0.008683846,0,0,0,0,0,9.833177,41.89679,0.3305174,0,54.29493,-9.833443,5045.594,24160.6
1185,59.25,-9.87531,-0.332726,0.008741874,0,0,0,0,0,9.875043,42.07517,0.332726,0,54.60241,-9.87531,5063.716,24218.9
1190,59.5,-9.91651,-0.333662,0.008766467,0,0,0,0,0,9.916243,42.25071,0.333662,0,54.90592,-9.91651,5062.572,24186.2
1195,59.75,-9.958776,-0.335843,0.008823767,0,0,0,0,0,9.958509,42.4308,0.3358429,0,55.21825,-9.958776,5079.772,24240.9
1200,60.0,-10.00051,-0.3372837,0.00886162,0,0,0,0,0,10.00024,42.60862,0.3372837,0,55.5276,-10.00051,5085.807,24243.3
1205,60.25,-10.04184,-0.3387672,0.008900598,0,0,0,0,0,10.04158,42.78473,0.3387672,0,55.83493,-10.04184,5092.501,24249.7
1210,60.5,-10.08358,-0.3406753,0.008950731,0,0,0,0,0,10.08331,42.96254,0.3406753,0,56.1462,-10.08358,5105.269,24285.4
1215,60.75,-10.12544,-0.3414295,0.008970546,0,0,0,0,0,10.12518,43.14093,0.3414295,0,56.45943,-10.12544,5100.569,24238.5
1220,61.0,-10.16691,-0.3434347,0.009023231,0,0,0,0,0,10.16664,43.3176,0.3434348,0,56.77065,-10.16691,5114.583,24281.4
1225,61.25,-10.20851,-0.3442799,0.009045435,0,0,0,0,0,10.20824,43.49485,0.3442799,0,57.08385,-10.20851,5111.136,24242
1230,61.5,-10.25037,-0.3461931,0.0090957,0,0,0,0,0,10.25011,43.67323,0.346193,0,57.40003,-10.25037,5123.314,24277.1
1235,61.75,-10.29171,-0.3469907,0.009116658,0,0,0,0,0,10.29144,43.84935,0.3469907,0,57.71318,-10.29171,5119.063,24235.3
1240,62.0,-10.33344,-0.3484251,0.009154345,0,0,0,0,0,10.33317,44.02716,0.3484251,0,58.03036,-10.33344,5123.946,24237.2
1245,62.25,-10.37531,-0.3499971,0.009195646,0,0,0,0,0,10.37504,44.20554,0.3499971,0,58.34957,-10.37531,5130.661,24248.3
1250,62.5,-10.41678,-0.3521117,0.009251205,0,0,0,0,0,10.41651,44.38223,0.3521117,0,58.66674,-10.41678,5145.314,24297.7
1255,62.75,-10.45851,-0.3527419,0.009267761,0,0,0,0,0,10.45824,44.56004,0.3527419,0,58.98695,-10.45851,5138.043,24244.1
1260,63.0,-10.50024,-0.3556691,0.00934467,0,0,0,0,0,10.49997,44.73785,0.3556691,0,59.30821,-10.50024,5164.065,24348.1
1265,63.25,-10.54184,-0.3571465,0.009383487,0,0,0,0,0,10.54158,44.9151,0.3571465,0,59.62946,-10.54184,5168.884,24352.7
1270,63.5,-10.58357,-0.3585022,0.009419105,0,0,0,0,0,10.58331,45.09291,0.3585022,0,59.95278,-10.58357,5171.756,24348.8
1275,63.75,-10.62517,-0.3610913,0.009487129,0,0,0,0,0,10.62491,45.27016,0.3610913,0,60.27612,-10.62517,5192.29,24428.6
1280,64.0,-10.66704,-0.3619675,0.009510151,0,0,0,0,0,10.66677,45.44855,0.3619675,0,60.60258,-10.66704,5187.926,24391.8
1285,64.25,-10.70851,-0.3644944,0.009576542,0,0,0,0,0,10.70824,45.62523,0.3644944,0,60.92698,-10.70851,5207.223,24467
1290,64.5,-10.75024,-0.3655998,0.009605585,0,0,0,0,0,10.74997,45.80304,0.3655998,0,61.25454,-10.75024,5205.935,24445.9
1295,64.75,-10.79197,-0.3680589,0.009670193,0,0,0,0,0,10.79171,45.98086,0.3680589,0,61.58318,-10.79197,5223.756,24515.1
1300,65.0,-10.83331,-0.3697062,0.009713475,0,0,0,0,0,10.83304,46.15697,0.3697062,0,61.90971,-10.83331,5230.029,24530.9
1305,65.25,-10.87531,-0.3720671,0.009775504,0,0,0,0,0,10.87504,46.33592,0.3720672,0,62.24263,-10.87531,5245.934,24592.2
1310,65.5,-10.91704,-0.374251,0.00983288,0,0,0,0,0,10.91677,46.51374,0.374251,0,62.57453,-10.91704,5259.24,24642
1315,65.75,-10.95851,-0.3759603,0.009877791,0,0,0,0,0,10.95824,46.69041,0.3759603,0,62.9054,-10.95851,5265.809,24660.9
1320,66.0,-11.00024,-0.3782811,0.009938766,0,0,0,0,0,10.99997,46.86823,0.3782811,0,63.23951,-11.00024,5280.643,24719
1325,66.25,-11.04197,-0.3797938,0.009978509,0,0,0,0,0,11.04171,47.04604,0.3797938,0,63.57474,-11.04197,5284.015,24724
1330,66.5,-11.08371,-0.382379,0.01004643,0,0,0,0,0,11.08344,47.22386,0.382379,0,63.91109,-11.08371,5302.12,24798.6
1335,66.75,-11.12491,-0.3837411,0.01008222,0,0,0,0,0,11.12464,47.3994,0.3837411,0,64.24427,-11.12491,5303.307,24794.7
1340,67.0,-11.16691,-0.3866844,0.01015955,0,0,0,0,0,11.16664,47.57835,0.3866844,0,64.58506,-11.16691,5325.803,24890.9
1345,67.25,-11.20864,-0.3882438,0.01020052,0,0,0,0,0,11.20837,47.75617,0.3882438,0,64.92484,-11.20864,5329.143,24898.3
1350,67.5,-11.24984,-0.3904402,0.01025823,0,0,0,0,0,11.24957,47.93171,0.3904402,0,65.26141,-11.24984,5341.283,24947.4
1355,67.75,-11.29197,-0.3924885,0.01031204,0,0,0,0,0,11.29171,48.11123,0.3924885,0,65.60677,-11.29197,5350.793,24984.7
1360,68.0,-11.33357,-0.3950125,0.01037836,0,0,0,0,0,11.33331,48.28848,0.3950125,0,65.94896,-11.33357,5366.807,25053.1
1365,68.25,-11.37517,-0.3975368,0.01044468,0,0,0,0,0,11.37491,48.46572,0.3975368,0,66.29231,-11.37517,5382.59,25121
1370,68.5,-11.41704,-0.3997532,0.01050291,0,0,0,0,0,11.41677,48.64411,0.3997532,0,66.63905,-11.41704,5393.865,25168.4
1375,68.75,-11.45837,-0.4025476,0.01057633,0,0,0,0,0,11.45811,48.82022,0.4025476,0,66.98256,-11.45837,5412.944,25252.9
1380,69.0,-11.50024,-0.4044225,0.01062559,0,0,0,0,0,11.49997,48.9986,0.4044225,0,67.33171,-11.50024,5419.201,25278.2
1385,69.25,-11.54184,-0.4074248,0.01070447,0,0,0,0,0,11.54157,49.17585,0.4074248,0,67.67986,-11.54184,5440.457,25374.1
1390,69.5,-11.58371,-0.4094254,0.01075703,0,0,0,0,0,11.58344,49.35423,0.4094254,0,68.03145,-11.58371,5447.983,25406.5
1395,69.75,-11.62544,-0.4121498,0.01082861,0,0,0,0,0,11.62517,49.53205,0.4121498,0,68.38317,-11.62544,5464.98,25483.7
1400,70.0,-11.66677,-0.4146171,0.01089344,0,0,0,0,0,11.66651,49.70816,0.4146171,0,68.73274,-11.66677,5478.511,25545.4
1405,70.25,-11.70877,-0.4173637,0.0109656,0,0,0,0,0,11.70851,49.88711,0.4173637,0,69.0892,-11.70877,5495.18,25622.4
1410,70.5,-11.75024,-0.4201631,0.01103915,0,0,0,0,0,11.74997,50.06379,0.4201631,0,69.44238,-11.75024,5512.534,25703.3
1415,70.75,-11.79184,-0.4222906,0.01109505,0,0,0,0,0,11.79157,50.24104,0.4222906,0,69.79796,-11.79184,5520.781,25742.3
1420,71.0,-11.8337,-0.4256814,0.01118414,0,0,0,0,0,11.83344,50.41942,0.4256814,0,70.15709,-11.8337,5545.16,25857.2
1425,71.25,-11.87517,-0.4277384,0.01123818,0,0,0,0,0,11.8749,50.5961,0.4277384,0,70.51408,-11.87517,5552.1,25891.4
1430,71.5,-11.91677,-0.4305878,0.01131305,0,0,0,0,0,11.9165,50.77335,0.4305879,0,70.8735,-11.91677,5569.034,25972.9
1435,71.75,-11.95864,-0.4332326,0.01138253,0,0,0,0,0,11.95837,50.95173,0.4332326,0,71.23653,-11.95864,5582.936,26040.9
1440,72.0,-12.00037,-0.4365053,0.01146852,0,0,0,0,0,12.0001,51.12954,0.4365053,0,71.59971,-12.00037,5604.718,26146.4
1445,72.25,-12.0417,-0.4390169,0.01153451,0,0,0,0,0,12.04144,51.30566,0.4390168,0,71.96073,-12.0417,5616.652,26206.6
1450,72.5,-12.08357,-0.4426216,0.01162922,0,0,0,0,0,12.0833,51.48404,0.4426216,0,72.32774,-12.08357,5642.026,26330.2
1455,72.75,-12.12557,-0.445633,0.01170834,0,0,0,0,0,12.1253,51.66299,0.4456331,0,72.69727,-12.12557,5659.46,26417.5
1460,73.0,-12.16677,-0.4491803,0.01180154,0,0,0,0,0,12.1665,51.83853,0.4491803,0,73.06109,-12.16677,5683.793,26537.6
1465,73.25,-12.20877,-0.4523839,0.0118857,0,0,0,0,0,12.2085,52.01748,0.4523838,0,73.43334,-12.20877,5703.06,26635
1470,73.5,-12.25037,-0.4564929,0.01199366,0,0,0,0,0,12.2501,52.19473,0.4564929,0,73.80344,-12.25037,5733.602,26785.6
1475,73.75,-12.29184,-0.4593868,0.0120697,0,0,0,0,0,12.29157,52.37141,0.4593869,0,74.1737,-12.29184,5748.626,26864.5
1480,74.0,-12.3337,-0.4634635,0.0121768,0,0,0,0,0,12.33344,52.54979,0.4634635,0,74.54893,-12.3337,5777.919,27010.9
1485,74.25,-12.37517,-0.4653063,0.01222522,0,0,0,0,0,12.3749,52.72647,0.4653063,0,74.92197,-12.37517,5779.294,27027.4
1490,74.5,-12.41704,-0.4686761,0.01231376,0,0,0,0,0,12.41677,52.90485,0.4686761,0,75.30002,-12.41704,5799.182,27131.4
1495,74.75,-12.45837,-0.472267,0.0124081,0,0,0,0,0,12.4581,53.08097,0.472267,0,75.67468,-12.45837,5821.762,27248.5
1500,75.0,-12.5001,-0.4766998,0.01252457,0,0,0,0,0,12.49984,53.25878,0.4766998,0,76.05438,-12.5001,5854.136,27412.4
1505,75.25,-12.5421,-0.4807763,0.01263167,0,0,0,0,0,12.54184,53.43773,0.4807763,0,76.43797,-12.5421,5881.593,27554.3
1510,75.5,-12.5833,-0.4838545,0.01271255,0,0,0,0,0,12.58304,53.61327,0.4838545,0,76.81568,-12.5833,5896.935,27639.9
1515,75.75,-12.6253,-0.4874562,0.01280718,0,0,0,0,0,12.62504,53.79222,0.4874562,0,77.20221,-12.6253,5917.912,27753
1520,76.0,-12.66717,-0.4912988,0.01290814,0,0,0,0,0,12.6669,53.97061,0.4912988,0,77.58901,-12.66717,5941.536,27879.4
1525,76.25,-12.7085,-0.4937383,0.01297223,0,0,0,0,0,12.70824,54.14672,0.4937383,0,77.97235,-12.7085,5948.193,27926.6
1530,76.5,-12.75037,-0.4978911,0.01308134,0,0,0,0,0,12.7501,54.3251,0.4978911,0,78.36214,-12.75037,5974.888,28069.1
1535,76.75,-12.79197,-0.5007951,0.01315764,0,0,0,0,0,12.7917,54.50235,0.5007951,0,78.75096,-12.79197,5986.415,28141
1540,77.0,-12.8337,-0.5040335,0.01324272,0,0,0,0,0,12.83344,54.68017,0.5040335,0,79.14254,-12.8337,6001.579,28230.8
1545,77.25,-12.8753,-0.5068141,0.01331578,0,0,0,0,0,12.87504,54.85741,0.5068141,0,79.53442,-12.8753,6011.086,28294.9
1550,77.5,-12.91704,-0.5103729,0.01340928,0,0,0,0,0,12.91677,55.03523,0.5103729,0,79.92908,-12.91704,6029.451,28401.5
1555,77.75,-12.9585,-0.5131931,0.01348338,0,0,0,0,0,12.95823,55.21191,0.5131931,0,80.32278,-12.9585,6038.947,28467
1560,78.0,-13.00023,-0.5170399,0.01358444,0,0,0,0,0,12.99997,55.38972,0.5170398,0,80.7206,-13.00023,6060.057,28588.3
1565,78.25,-13.04197,-0.5205867,0.01367763,0,0,0,0,0,13.0417,55.56754,0.5205867,0,81.11999,-13.04197,6077.308,28692.4
1570,78.5,-13.08343,-0.5247498,0.01378701,0,0,0,0,0,13.08317,55.74422,0.5247498,0,81.51841,-13.08343,6101.55,28830.1
1575,78.75,-13.1253,-0.528411,0.0138832,0,0,0,0,0,13.12504,55.9226,0.528411,0,81.92231,-13.1253,6119.355,28938.7
1580,79.0,-13.1669,-0.5324897,0.01399036,0,0,0,0,0,13.16663,56.09985,0.5324897,0,82.32524,-13.1669,6141.791,29069.9
1585,79.25,-13.2085,-0.5360402,0.01408365,0,0,0,0,0,13.20823,56.2771,0.5360402,0,82.72981,-13.2085,6157.78,29171.6
1590,79.5,-13.25037,-0.5402726,0.01419485,0,0,0,0,0,13.2501,56.45548,0.5402727,0,83.13863,-13.25037,6181.079,29309
1595,79.75,-13.29183,-0.5439424,0.01429127,0,0,0,0,0,13.29157,56.63216,0.5439424,0,83.5452,-13.29183,6197.814,29416
1600,80.0,-13.3337,-0.5476178,0.01438783,0,0,0,0,0,13.33343,56.81054,0.5476177,0,83.95737,-13.3337,6214.027,29521.8
1605,80.25,-13.3753,-0.5510188,0.01447719,0,0,0,0,0,13.37503,56.98779,0.5510188,0,84.36862,-13.3753,6226.959,29612.8
1610,80.50001,-13.4169,-0.5542824,0.01456293,0,0,0,0,0,13.41663,57.16504,0.5542824,0,84.78155,-13.4169,6238.028,29695.8
1615,80.75001,-13.45877,-0.55778,0.01465483,0,0,0,0,0,13.4585,57.34342,0.55778,0,85.19886,-13.45877,6251.248,29790.2
1620,81.00001,-13.5001,-0.5606248,0.01472957,0,0,0,0,0,13.49983,57.51953,0.5606248,0,85.61256,-13.5001,6257.192,29850.5
1625,81.25001,-13.54197,-0.5639847,0.01481785,0,0,0,0,0,13.5417,57.69791,0.5639847,0,86.03338,-13.54197,6268.259,29936.5
1630,81.50001,-13.58357,-0.5676957,0.01491535,0,0,0,0,0,13.5833,57.87516,0.5676957,0,86.45326,-13.58357,6283.067,30041.2
1635,81.75001,-13.62517,-0.5706223,0.01499224,0,0,0,0,0,13.6249,58.05241,0.5706223,0,86.87491,-13.62517,6288.884,30103.9
1640,82.00001,-13.66703,-0.5745175,0.01509458,0,0,0,0,0,13.66677,58.23079,0.5745175,0,87.30107,-13.66703,6304.888,30216.5
1645,82.25001,-13.70877,-0.5779977,0.01518602,0,0,0,0,0,13.7085,58.40861,0.5779977,0,87.7277,-13.70877,6316.077,30307
1650,82.50001,-13.75037,-0.5818162,0.01528634,0,0,0,0,0,13.7501,58.58585,0.5818162,0,88.15476,-13.75037,6330.709,30415
1655,82.75001,-13.7917,-0.5858831,0.0153932,0,0,0,0,0,13.79143,58.76197,0.5858831,0,88.58092,-13.7917,6347.851,30535.8
1660,83.00001,-13.8337,-0.5900796,0.01550345,0,0,0,0,0,13.83343,58.94092,0.5900795,0,89.01581,-13.8337,6365.575,30661.1
1665,83.25001,-13.8753,-0.5941343,0.01560998,0,0,0,0,0,13.87503,59.11816,0.5941343,0,89.44842,-13.8753,6381.648,30779.2
1670,83.50001,-13.91663,-0.5986357,0.01572825,0,0,0,0,0,13.91637,59.29428,0.5986357,0,89.88015,-13.91663,6402.298,30920.3
1675,83.75001,-13.95877,-0.6029585,0.01584183,0,0,0,0,0,13.9585,59.47379,0.6029585,0,90.32213,-13.95877,6420.092,31049.6
1680,84.00001,-14.0001,-0.607705,0.01596653,0,0,0,0,0,13.99983,59.6499,0.607705,0,90.75763,-14.0001,6442.512,31201.6
1685,84.25001,-14.04183,-0.6118931,0.01607657,0,0,0,0,0,14.04157,59.82772,0.6118931,0,91.1993,-14.04183,6458.325,31323.3
1690,84.50001,-14.0837,-0.6172548,0.01621744,0,0,0,0,0,14.08343,60.0061,0.6172549,0,91.64433,-14.0837,6485.987,31503.8
1695,84.75001,-14.1253,-0.6225032,0.01635533,0,0,0,0,0,14.12503,60.18335,0.6225032,0,92.0885,-14.1253,6512.146,31678.1
1700,85.00001,-14.1669,-0.6275441,0.01648778,0,0,0,0,0,14.16663,60.3606,0.6275441,0,92.53466,-14.1669,6535.656,31840.9
1705,85.25001,-14.2085,-0.6331496,0.01663505,0,0,0,0,0,14.20823,60.53784,0.6331496,0,92.9828,-14.2085,6564.55,32031.2
1710,85.50001,-14.25037,-0.638619,0.01677875,0,0,0,0,0,14.2501,60.71623,0.638619,0,93.43587,-14.25037,6591.327,32213
1715,85.75001,-14.29183,-0.6437512,0.01691359,0,0,0,0,0,14.29156,60.8929,0.6437512,0,93.88662,-14.29183,6614.415,32377.7
1720,86.00001,-14.33343,-0.648812,0.01704656,0,0,0,0,0,14.33316,61.07015,0.6488119,0,94.34089,-14.33343,6636.199,32537.5
1725,86.25001,-14.3753,-0.6541602,0.01718707,0,0,0,0,0,14.37503,61.24854,0.6541602,0,94.80016,-14.3753,6660.243,32710.2
1730,86.50001,-14.4169,-0.6591682,0.01731865,0,0,0,0,0,14.41663,61.42578,0.6591682,0,95.25861,-14.4169,6680.534,32865.5
1735,86.75001,-14.45863,-0.6643503,0.0174548,0,0,0,0,0,14.45836,61.6036,0.6643503,0,95.72065,-14.45863,6702.016,33028.2
1740,87.00001,-14.50036,-0.6707034,0.01762172,0,0,0,0,0,14.5001,61.78141,0.6707034,0,96.18483,-14.50036,6734.772,33248.1
1745,87.25001,-14.54183,-0.675553,0.01774914,0,0,0,0,0,14.54156,61.95809,0.675553,0,96.64818,-14.54183,6752.11,33393
1750,87.50001,-14.58343,-0.6811598,0.01789645,0,0,0,0,0,14.58317,62.13534,0.6811599,0,97.1152,-14.58343,6776.429,33574.1
1755,87.75001,-14.6253,-0.6871708,0.01805438,0,0,0,0,0,14.62503,62.31372,0.6871709,0,97.58742,-14.6253,6804.022,33773.4
1760,88.00001,-14.66703,-0.6921217,0.01818445,0,0,0,0,0,14.66676,62.49154,0.6921217,0,98.06036,-14.66703,6820.709,33920
1765,88.25001,-14.70836,-0.6968119,0.01830768,0,0,0,0,0,14.7081,62.66765,0.6968119,0,98.531,-14.70836,6834.688,34053.9
1770,88.50001,-14.75036,-0.7019284,0.01844211,0,0,0,0,0,14.7501,62.8466,0.7019284,0,99.0115,-14.75036,6851.87,34206.2
1775,88.75001,-14.7921,-0.7070539,0.01857677,0,0,0,0,0,14.79183,63.02441,0.7070538,0,99.49124,-14.7921,6868.871,34358.8
1780,89.00001,-14.83343,-0.7116459,0.01869742,0,0,0,0,0,14.83316,63.20053,0.7116459,0,99.96866,-14.83343,6880.554,34485.6
1785,89.25001,-14.87543,-0.7166021,0.01882764,0,0,0,0,0,14.87516,63.37948,0.7166021,0,100.4561,-14.87543,6894.781,34627.7
1790,89.50001,-14.91703,-0.7216833,0.01896114,0,0,0,0,0,14.91676,63.55672,0.7216833,0,100.9413,-14.91703,6910.06,34776
1795,89.75001,-14.9585,-0.7271155,0.01910386,0,0,0,0,0,14.95823,63.73341,0.7271155,0,101.4273,-14.9585,6928.321,34940.6
1800,90.00001,-15.00023,-0.7328977,0.01925578,0,0,0,0,0,14.99996,63.91122,0.7328977,0,101.9188,-15.00023,6949.177,35120.5
1804,90.15201,-15.0257,-0.7365464,0.01935165,0,0,0,0,0,15.02543,64.01973,0.7365464,0,102.2199,-15.0257,6962.775,35235.5