File: GFBaking/em/1_g7_2.csv
,Time sec,Extension mm,Load kgf,Compressive stress MPa,Cycle Count ,Total Cycle Count ,Repetitions Count ,Marked Data ,PIP Count ,Compressive extension mm,Compressive strain %,Compressive load kgf,Displacement (Strain 1) mm,True strain %,Corrected Position mm,True stress Pa,Elastic Modulus
0,0.0,0.0,-0.1325191,0.003681607,0,0,0,0,0,0.0,0.0,0.1325191,0,0.0,0.0,3681.607,inf
5,0.25,-0.03573325,-0.1393927,0.003872569,0,0,0,0,0,0.03573325,0.146208,0.1393927,0,0.146315,-0.03573325,3866.907,2.80398e+06
10,0.5,-0.08226647,-0.1483631,0.004121781,0,0,0,0,0,0.08226646,0.3366058,0.1483631,0,0.3371736,-0.08226647,4107.907,1.29631e+06
15,0.7500001,-0.1247997,-0.1554273,0.004318037,0,0,0,0,0,0.1247997,0.510637,0.1554273,0,0.5119453,-0.1247997,4295.987,895202
20,1.0,-0.1666663,-0.1618583,0.004496702,0,0,0,0,0,0.1666663,0.6819405,0.1618583,0,0.6842763,-0.1666663,4466.038,698063
25,1.25,-0.2085328,-0.1678515,0.004663204,0,0,0,0,0,0.2085328,0.853244,0.1678515,0,0.856905,-0.2085328,4623.415,578573
30,1.5,-0.250266,-0.1738184,0.004828973,0,0,0,0,0,0.250266,1.024002,0.1738184,0,1.029281,-0.250266,4779.525,499231
35,1.75,-0.2917326,-0.1787993,0.004967351,0,0,0,0,0,0.2917326,1.193669,0.1787993,0,1.20085,-0.2917326,4908.057,440543
40,2.0,-0.3335992,-0.1838182,0.005106785,0,0,0,0,0,0.3335992,1.364972,0.1838182,0,1.374374,-0.3335992,5037.079,396069
45,2.25,-0.3750657,-0.1889272,0.005248721,0,0,0,0,0,0.3750657,1.534639,0.1889272,0,1.546536,-0.3750657,5168.172,362072
50,2.5,-0.416799,-0.1938229,0.005384734,0,0,0,0,0,0.416799,1.705397,0.193823,0,1.720106,-0.416799,5292.903,334261
55,2.75,-0.4585322,-0.198055,0.005502307,0,0,0,0,0,0.4585322,1.876155,0.198055,0,1.893978,-0.4585322,5399.075,310473
60,3.0,-0.4999988,-0.2026585,0.005630201,0,0,0,0,0,0.4999988,2.045822,0.2026585,0,2.067038,-0.4999988,5515.017,291342
65,3.25,-0.5418654,-0.2064936,0.005736745,0,0,0,0,0,0.5418653,2.217125,0.2064936,0,2.242073,-0.5418654,5609.555,273919
70,3.5,-0.5833319,-0.210792,0.005856163,0,0,0,0,0,0.5833319,2.386792,0.210792,0,2.415737,-0.5833319,5716.389,259744
75,3.75,-0.6253318,-0.2148725,0.005969527,0,0,0,0,0,0.6253318,2.558641,0.2148725,0,2.591943,-0.6253318,5816.788,246989
80,4.0,-0.6669317,-0.2191798,0.006089191,0,0,0,0,0,0.6669317,2.728853,0.2191798,0,2.766778,-0.6669317,5923.026,236225
85,4.25,-0.7082649,-0.2229856,0.006194923,0,0,0,0,0,0.7082649,2.897974,0.2229856,0,2.940795,-0.7082649,6015.396,226302
90,4.5,-0.7503981,-0.2268308,0.006301749,0,0,0,0,0,0.7503982,3.070369,0.2268308,0,3.118492,-0.7503981,6108.262,217279
95,4.75,-0.7918648,-0.2304924,0.006403475,0,0,0,0,0,0.7918648,3.240036,0.2304924,0,3.293687,-0.7918648,6196.0,209225
100,5.0,-0.8333313,-0.2339828,0.006500443,0,0,0,0,0,0.8333313,3.409703,0.2339828,0,3.469189,-0.8333313,6278.797,201824
105,5.25,-0.8753312,-0.2376725,0.00660295,0,0,0,0,0,0.8753312,3.581552,0.2376725,0,3.647263,-0.8753312,6366.462,195170
110,5.5,-0.9167978,-0.2407641,0.00668884,0,0,0,0,0,0.9167978,3.751218,0.2407641,0,3.823387,-0.9167978,6437.927,188767
115,5.75,-0.9583976,-0.2439258,0.006776678,0,0,0,0,0,0.9583976,3.921431,0.2439258,0,4.00039,-0.9583976,6510.935,182944
120,6.0,-1.000264,-0.2469405,0.006860431,0,0,0,0,0,1.000264,4.092734,0.2469405,0,4.178844,-1.000264,6579.652,177454
125,6.25,-1.041731,-0.2499801,0.006944876,0,0,0,0,0,1.041731,4.262401,0.2499801,0,4.355908,-1.041731,6648.857,172487
130,6.5,-1.083464,-0.2529886,0.007028459,0,0,0,0,0,1.083464,4.433159,0.2529886,0,4.534428,-1.083464,6716.876,167839
135,6.75,-1.125064,-0.2559688,0.007111252,0,0,0,0,0,1.125064,4.603372,0.2559688,0,4.712695,-1.125064,6783.895,163537
140,7.0,-1.167064,-0.2588599,0.007191573,0,0,0,0,0,1.167064,4.77522,0.2588599,0,4.892999,-1.167064,6848.16,159433
145,7.25,-1.208264,-0.2619358,0.007277027,0,0,0,0,0,1.208264,4.943796,0.2619358,0,5.070185,-1.208264,6917.265,155826
150,7.5,-1.25013,-0.2651991,0.007367687,0,0,0,0,0,1.25013,5.115099,0.2651992,0,5.25056,-1.25013,6990.823,152484
155,7.75,-1.291997,-0.268464,0.00745839,0,0,0,0,0,1.291997,5.286403,0.268464,0,5.431262,-1.291997,7064.109,149359
160,8.0,-1.333597,-0.2714114,0.007540276,0,0,0,0,0,1.333597,5.456615,0.2714114,0,5.611136,-1.333597,7128.832,146289
165,8.25,-1.375197,-0.2742165,0.007618204,0,0,0,0,0,1.375197,5.626827,0.2742165,0,5.791334,-1.375197,7189.541,143330
170,8.5,-1.416663,-0.2771605,0.007699996,0,0,0,0,0,1.416663,5.796494,0.2771606,0,5.971279,-1.416663,7253.666,140628
175,8.75,-1.458396,-0.2800089,0.007779129,0,0,0,0,0,1.458396,5.967252,0.2800089,0,6.152708,-1.458396,7314.929,138008
180,9.0,-1.499996,-0.2829864,0.007861849,0,0,0,0,0,1.499996,6.137465,0.2829865,0,6.333886,-1.499996,7379.331,135607
185,9.25,-1.54173,-0.285905,0.007942931,0,0,0,0,0,1.54173,6.308222,0.285905,0,6.515975,-1.54173,7441.873,133297
190,9.5,-1.583596,-0.2888942,0.008025976,0,0,0,0,0,1.583596,6.479526,0.2888941,0,6.69898,-1.583596,7505.93,131130
195,9.75,-1.624929,-0.291405,0.008095732,0,0,0,0,0,1.624929,6.648647,0.291405,0,6.879982,-1.624929,7557.475,128905
200,10.0,-1.666929,-0.2941321,0.008171494,0,0,0,0,0,1.666929,6.820496,0.2941321,0,7.06424,-1.666929,7614.157,126833
205,10.25,-1.708662,-0.2965091,0.008237533,0,0,0,0,0,1.708663,6.991254,0.2965091,0,7.247665,-1.708662,7661.626,124735
210,10.5,-1.749996,-0.2989011,0.008303985,0,0,0,0,0,1.749996,7.160376,0.2989011,0,7.429665,-1.749996,7709.388,122772
215,10.75,-1.791996,-0.301079,0.008364492,0,0,0,0,0,1.791996,7.332224,0.301079,0,7.614939,-1.791996,7751.189,120768
220,11.0,-1.833596,-0.3027006,0.008409541,0,0,0,0,0,1.833596,7.502437,0.3027006,0,7.798789,-1.833596,7778.621,118663
225,11.25,-1.875062,-0.3042784,0.008453377,0,0,0,0,0,1.875062,7.672103,0.3042784,0,7.982385,-1.875062,7804.825,116644
230,11.5,-1.916662,-0.3058122,0.008495987,0,0,0,0,0,1.916662,7.842316,0.3058122,0,8.166912,-1.916662,7829.705,114688
235,11.75,-1.958529,-0.3075145,0.00854328,0,0,0,0,0,1.958529,8.013619,0.3075145,0,8.352965,-1.958529,7858.654,112861
240,12.0,-2.000128,-0.3093686,0.00859479,0,0,0,0,0,2.000128,8.183831,0.3093686,0,8.538177,-2.000128,7891.408,111180
245,12.25,-2.041728,-0.3112508,0.008647081,0,0,0,0,0,2.041728,8.354045,0.3112508,0,8.723734,-2.041728,7924.7,109577
250,12.5,-2.083595,-0.3133056,0.008704167,0,0,0,0,0,2.083595,8.525348,0.3133056,0,8.910827,-2.083595,7962.106,108084
255,12.75,-2.124928,-0.3154123,0.008762694,0,0,0,0,0,2.124928,8.694468,0.3154123,0,9.095882,-2.124928,8000.825,106694
260,13.0,-2.166795,-0.3175315,0.00882157,0,0,0,0,0,2.166795,8.865772,0.3175315,0,9.283674,-2.166795,8039.47,105336
265,13.25,-2.208528,-0.3199915,0.008889914,0,0,0,0,0,2.208528,9.03653,0.3199915,0,9.471219,-2.208528,8086.575,104146
270,13.5,-2.250128,-0.3223337,0.008954984,0,0,0,0,0,2.250128,9.206743,0.3223337,0,9.658516,-2.250128,8130.522,102969
275,13.75,-2.291861,-0.3246027,0.00901802,0,0,0,0,0,2.291861,9.377501,0.3246027,0,9.846767,-2.291861,8172.355,101805
280,14.0,-2.333461,-0.3267355,0.009077273,0,0,0,0,0,2.333461,9.547713,0.3267355,0,10.03477,-2.333461,8210.601,100648
285,14.25,-2.375328,-0.3288736,0.009136674,0,0,0,0,0,2.375328,9.719016,0.3288736,0,10.22433,-2.375328,8248.679,99520.5
290,14.5,-2.416794,-0.3308373,0.009191227,0,0,0,0,0,2.416794,9.888683,0.3308373,0,10.41244,-2.416794,8282.336,98397.1
295,14.75,-2.458261,-0.3327392,0.009244067,0,0,0,0,0,2.458261,10.05835,0.3327392,0,10.60091,-2.458261,8314.266,97293.4
300,15.0,-2.500394,-0.3346546,0.009297279,0,0,0,0,0,2.500394,10.23074,0.3346546,0,10.79276,-2.500394,8346.098,96204.6
305,15.25,-2.541594,-0.3364239,0.009346434,0,0,0,0,0,2.541594,10.39932,0.3364239,0,10.98073,-2.541594,8374.468,95145.4
310,15.5,-2.583194,-0.3380034,0.009390315,0,0,0,0,0,2.583194,10.56953,0.3380034,0,11.17088,-2.583194,8397.802,94052.7
315,15.75,-2.62546,-0.3398304,0.009441072,0,0,0,0,0,2.62546,10.74247,0.3398304,0,11.36444,-2.62546,8426.868,93038.8
320,16.0,-2.666794,-0.3409678,0.00947267,0,0,0,0,0,2.666794,10.91159,0.3409678,0,11.5541,-2.666794,8439.051,91903.3
325,16.25,-2.708527,-0.342403,0.009512544,0,0,0,0,0,2.708527,11.08235,0.342403,0,11.74595,-2.708527,8458.33,90868.2
330,16.5,-2.75026,-0.3435979,0.009545741,0,0,0,0,0,2.75026,11.25311,0.3435979,0,11.93818,-2.75026,8471.548,89801.6
335,16.75,-2.79186,-0.3444931,0.009570609,0,0,0,0,0,2.79186,11.42332,0.3444931,0,12.13016,-2.79186,8477.328,88694
340,17.0,-2.833593,-0.3446055,0.009573733,0,0,0,0,0,2.833593,11.59408,0.3446055,0,12.32313,-2.833593,8463.746,87416.2
345,17.25,-2.875193,-0.3447077,0.009576573,0,0,0,0,0,2.875193,11.76429,0.3447078,0,12.51585,-2.875193,8449.957,86177
350,17.5,-2.917059,-0.3448296,0.009579958,0,0,0,0,0,2.917059,11.9356,0.3448296,0,12.71018,-2.917059,8436.534,84970.2
355,17.75,-2.958393,-0.3454761,0.009597919,0,0,0,0,0,2.958393,12.10472,0.3454761,0,12.9024,-2.958393,8436.118,83940.1
360,18.0,-3.000259,-0.3458332,0.00960784,0,0,0,0,0,3.000259,12.27602,0.3458332,0,13.09749,-3.000259,8428.38,82854.3
365,18.25,-3.041859,-0.3467374,0.009632959,0,0,0,0,0,3.041859,12.44623,0.3467374,0,13.29171,-3.041859,8434.019,81934.9
370,18.5,-3.083459,-0.3471335,0.009643965,0,0,0,0,0,3.083459,12.61644,0.3471335,0,13.48631,-3.083459,8427.24,80921.8
375,18.75,-3.125192,-0.3479993,0.009668019,0,0,0,0,0,3.125192,12.7872,0.3479993,0,13.68191,-3.125192,8431.749,80040.3
380,19.0,-3.166792,-0.3483673,0.009678241,0,0,0,0,0,3.166792,12.95741,0.3483673,0,13.87727,-3.166792,8424.191,79072.4
385,19.25,-3.208525,-0.3496158,0.009712927,0,0,0,0,0,3.208525,13.12817,0.3496158,0,14.07364,-3.208525,8437.797,78323.7
390,19.5,-3.249859,-0.3498496,0.009719422,0,0,0,0,0,3.249859,13.29729,0.3498496,0,14.26851,-3.249859,8427.002,77379.2
395,19.75,-3.291992,-0.3511981,0.009756886,0,0,0,0,0,3.291992,13.46969,0.3511981,0,14.46754,-3.291992,8442.664,76683.3
400,20.0,-3.333458,-0.3513108,0.009760017,0,0,0,0,0,3.333458,13.63936,0.3513108,0,14.66381,-3.333458,8428.813,75753.7
405,20.25,-3.375059,-0.3522475,0.00978604,0,0,0,0,0,3.375058,13.80957,0.3522475,0,14.8611,-3.375059,8434.63,75019.5
410,20.5,-3.417192,-0.3524077,0.009790491,0,0,0,0,0,3.417192,13.98196,0.3524077,0,15.06132,-3.417192,8421.588,74128.2
415,20.75,-3.458525,-0.3530707,0.009808912,0,0,0,0,0,3.458525,14.15108,0.3530707,0,15.25812,-3.458525,8420.844,73380.1
420,21.0,-3.499991,-0.3529799,0.009806387,0,0,0,0,0,3.499991,14.32075,0.3529799,0,15.45595,-3.499991,8402.039,72492
425,21.25,-3.541991,-0.3533477,0.009816607,0,0,0,0,0,3.541991,14.4926,0.3533477,0,15.65673,-3.541991,8393.925,71707.1
430,21.5,-3.583325,-0.3528963,0.009804064,0,0,0,0,0,3.583325,14.66172,0.3528963,0,15.85471,-3.583325,8366.62,70789.4
435,21.75,-3.625058,-0.3525907,0.009795575,0,0,0,0,0,3.625058,14.83248,0.3525907,0,16.055,-3.625058,8342.649,69913.8
440,22.0,-3.666924,-0.3519218,0.009776991,0,0,0,0,0,3.666924,15.00378,0.3519218,0,16.25634,-3.666924,8310.072,68984.5
445,22.25,-3.708391,-0.3508935,0.009748424,0,0,0,0,0,3.708391,15.17345,0.3508935,0,16.45616,-3.708391,8269.252,68013.8
450,22.5,-3.749991,-0.3497623,0.009716996,0,0,0,0,0,3.749991,15.34366,0.3497623,0,16.65702,-3.749991,8226.053,67042.5
455,22.75,-3.791858,-0.3493029,0.009704235,0,0,0,0,0,3.791857,15.51497,0.3493029,0,16.85958,-3.791858,8198.626,66215.2
460,23.0,-3.833724,-0.3491078,0.009698815,0,0,0,0,0,3.833724,15.68627,0.3491078,0,17.06254,-3.833724,8177.432,65455.5
465,23.25,-3.875057,-0.3489642,0.009694823,0,0,0,0,0,3.875057,15.85539,0.3489642,0,17.26333,-3.875057,8157.671,64730.7
470,23.5,-3.916791,-0.349052,0.009697262,0,0,0,0,0,3.916791,16.02615,0.349052,0,17.46647,-3.916791,8143.165,64057.1
475,23.75,-3.958657,-0.3491888,0.009701064,0,0,0,0,0,3.958657,16.19745,0.3491888,0,17.67068,-3.958657,8129.739,63404.4
480,24.0,-4.000257,-0.3496137,0.009712868,0,0,0,0,0,4.000257,16.36766,0.3496137,0,17.87399,-4.000257,8123.099,62821.4
485,24.25,-4.04199,-0.3500417,0.009724759,0,0,0,0,0,4.04199,16.53842,0.3500417,0,18.07838,-4.04199,8116.437,62248.9
490,24.5,-4.083457,-0.3506243,0.009740944,0,0,0,0,0,4.083457,16.70809,0.3506243,0,18.28187,-4.083457,8113.419,61719.3
495,24.75,-4.125323,-0.3508404,0.009746949,0,0,0,0,0,4.125323,16.87939,0.3508404,0,18.48775,-4.125323,8101.724,61130.6
500,25.0,-4.166523,-0.3514653,0.009764309,0,0,0,0,0,4.166523,17.04797,0.3514653,0,18.69077,-4.166523,8099.693,60634
505,25.25,-4.208256,-0.3520807,0.009781407,0,0,0,0,0,4.208257,17.21873,0.3520807,0,18.89683,-4.208256,8097.174,60137.8
510,25.5,-4.25039,-0.3525908,0.009795578,0,0,0,0,0,4.25039,17.39112,0.3525908,0,19.1053,-4.25039,8092.017,59627.9
515,25.75,-4.29159,-0.3530317,0.009807826,0,0,0,0,0,4.29159,17.5597,0.3530317,0,19.30957,-4.29159,8085.601,59129.3
520,26.0,-4.33359,-0.3535526,0.009822298,0,0,0,0,0,4.33359,17.73154,0.3535526,0,19.51824,-4.33359,8080.653,58642.6
525,26.25,-4.375323,-0.3537876,0.009828825,0,0,0,0,0,4.375323,17.9023,0.3537876,0,19.72602,-4.375323,8069.24,58121.9
530,26.5,-4.416656,-0.354087,0.009837144,0,0,0,0,0,4.416656,18.07142,0.354087,0,19.93223,-4.416656,8059.432,57626.7
535,26.75,-4.458656,-0.3541344,0.009838462,0,0,0,0,0,4.458656,18.24327,0.3541344,0,20.14221,-4.458656,8043.604,57091.5
540,27.0,-4.500122,-0.3540593,0.009836375,0,0,0,0,0,4.500122,18.41294,0.3540593,0,20.34995,-4.500122,8025.209,56553.4
545,27.25,-4.541989,-0.3544872,0.009848262,0,0,0,0,0,4.541989,18.58424,0.3544872,0,20.56014,-4.541989,8018.037,56099.9
550,27.5,-4.583322,-0.3548762,0.009859069,0,0,0,0,0,4.583323,18.75336,0.3548762,0,20.76808,-4.583322,8010.162,55654.9
555,27.75,-4.625189,-0.3553723,0.009872853,0,0,0,0,0,4.625189,18.92467,0.3553723,0,20.97914,-4.625189,8004.448,55228.3
560,28.0,-4.666789,-0.3556021,0.009879237,0,0,0,0,0,4.666789,19.09488,0.3556021,0,21.18931,-4.666789,7992.809,54771.4
565,28.25,-4.708388,-0.3559951,0.009890156,0,0,0,0,0,4.708388,19.26509,0.3559951,0,21.39991,-4.708388,7984.809,54347.4
570,28.5,-4.750255,-0.356431,0.009902265,0,0,0,0,0,4.750255,19.4364,0.356431,0,21.61232,-4.750255,7977.622,53934.4
575,28.75,-4.791722,-0.3569658,0.009917123,0,0,0,0,0,4.791722,19.60606,0.3569658,0,21.82314,-4.791722,7972.766,53547.9
580,29.0,-4.833322,-0.3574484,0.009930529,0,0,0,0,0,4.833322,19.77628,0.3574484,0,22.03509,-4.833322,7966.64,53158.8
585,29.25,-4.875188,-0.3577112,0.009937832,0,0,0,0,0,4.875188,19.94758,0.3577112,0,22.24885,-4.875188,7955.475,52741
590,29.5,-4.916788,-0.3583623,0.009955921,0,0,0,0,0,4.916788,20.11779,0.3583623,0,22.4617,-4.916788,7953.009,52390
595,29.75,-4.958521,-0.3588706,0.009970041,0,0,0,0,0,4.958521,20.28855,0.3588706,0,22.67569,-4.958521,7947.264,52022.7
600,30.0,-5.000121,-0.3596556,0.009991851,0,0,0,0,0,5.000121,20.45876,0.3596556,0,22.88946,-5.000121,7947.642,51702.7
605,30.25,-5.041988,-0.3601549,0.01000572,0,0,0,0,0,5.041987,20.63006,0.3601549,0,23.10505,-5.041988,7941.534,51344.6
610,30.5,-5.083454,-0.3607513,0.01002229,0,0,0,0,0,5.083454,20.79973,0.3607513,0,23.31905,-5.083454,7937.682,51010.1
615,30.75,-5.125054,-0.362074,0.01005904,0,0,0,0,0,5.125054,20.96994,0.362074,0,23.53419,-5.125054,7949.662,50781.6
620,31.0,-5.167054,-0.3631204,0.01008811,0,0,0,0,0,5.167054,21.14179,0.3631204,0,23.75188,-5.167054,7955.301,50514.4
625,31.25,-5.208388,-0.3643246,0.01012156,0,0,0,0,0,5.208387,21.31091,0.3643246,0,23.96657,-5.208388,7964.564,50279.7
630,31.5,-5.249987,-0.3656446,0.01015824,0,0,0,0,0,5.249987,21.48113,0.3656446,0,24.18312,-5.249987,7976.132,50062
635,31.75,-5.291987,-0.3674448,0.01020825,0,0,0,0,0,5.291987,21.65298,0.3674448,0,24.40222,-5.291987,7997.858,49909.2
640,32.0,-5.33332,-0.3684144,0.01023519,0,0,0,0,0,5.33332,21.8221,0.3684144,0,24.61831,-5.33332,8001.653,49653.1
645,32.25,-5.375187,-0.3699434,0.01027766,0,0,0,0,0,5.375187,21.9934,0.3699434,0,24.83767,-5.375187,8017.256,49470.8
650,32.5,-5.416787,-0.371496,0.0103208,0,0,0,0,0,5.416787,22.16361,0.371496,0,25.05612,-5.416787,8033.336,49296.9
655,32.75,-5.45852,-0.372871,0.010359,0,0,0,0,0,5.45852,22.33437,0.372871,0,25.27574,-5.45852,8045.379,49101.1
660,33.0,-5.50012,-0.3740417,0.01039152,0,0,0,0,0,5.50012,22.50458,0.3740417,0,25.49514,-5.50012,8052.953,48882.7
665,33.25,-5.541986,-0.3753239,0.01042714,0,0,0,0,0,5.541986,22.67588,0.3753239,0,25.71643,-5.541986,8062.695,48679.7
670,33.5,-5.583587,-0.3767364,0.01046638,0,0,0,0,0,5.583587,22.8461,0.3767364,0,25.9368,-5.583587,8075.223,48498.9
675,33.75,-5.625053,-0.3780873,0.01050392,0,0,0,0,0,5.625053,23.01576,0.3780873,0,26.15695,-5.625053,8086.359,48314
680,34.0,-5.66692,-0.3797347,0.01054968,0,0,0,0,0,5.66692,23.18707,0.3797347,0,26.37972,-5.66692,8103.52,48166
685,34.25,-5.708519,-0.3811488,0.01058897,0,0,0,0,0,5.708519,23.35728,0.3811488,0,26.60156,-5.708519,8115.673,47993.1
690,34.5,-5.749986,-0.3827241,0.01063273,0,0,0,0,0,5.749986,23.52695,0.3827241,0,26.82318,-5.749986,8131.175,47843.9
695,34.75,-5.791853,-0.3844636,0.01068106,0,0,0,0,0,5.791853,23.69825,0.3844636,0,27.04743,-5.791853,8149.834,47713.9
700,35.0,-5.833319,-0.3860418,0.0107249,0,0,0,0,0,5.833319,23.86792,0.3860418,0,27.27004,-5.833319,8165.093,47569.2
705,35.25,-5.875319,-0.3875625,0.01076715,0,0,0,0,0,5.875319,24.03977,0.3875625,0,27.49602,-5.875319,8178.753,47415.2
710,35.5,-5.916652,-0.3894148,0.01081861,0,0,0,0,0,5.916652,24.20889,0.3894148,0,27.71892,-5.916652,8199.546,47309
715,35.75,-5.958519,-0.3909072,0.01086007,0,0,0,0,0,5.958519,24.38019,0.3909072,0,27.94519,-5.958519,8212.366,47156.6
720,36.0,-6.000119,-0.3921391,0.0108943,0,0,0,0,0,6.000119,24.5504,0.3921391,0,28.17054,-6.000119,8219.704,46977.2
725,36.25,-6.041585,-0.3936066,0.01093507,0,0,0,0,0,6.041585,24.72007,0.3936066,0,28.39566,-6.041585,8231.911,46829.4
730,36.5,-6.083852,-0.3951238,0.01097722,0,0,0,0,0,6.083852,24.89301,0.3951238,0,28.62566,-6.083852,8244.657,46683.3
735,36.75,-6.125185,-0.3966198,0.01101878,0,0,0,0,0,6.125185,25.06213,0.3966198,0,28.85108,-6.125185,8257.238,46543.9
740,37.0,-6.166652,-0.3979677,0.01105623,0,0,0,0,0,6.166652,25.2318,0.3979677,0,29.07775,-6.166652,8266.541,46388
745,37.25,-6.208652,-0.399588,0.01110124,0,0,0,0,0,6.208652,25.40365,0.399588,0,29.30786,-6.208652,8281.12,46261.8
750,37.5,-6.249985,-0.4012718,0.01114802,0,0,0,0,0,6.249985,25.57277,0.4012718,0,29.53483,-6.249985,8297.162,46149.5
755,37.75,-6.291585,-0.4027135,0.01118807,0,0,0,0,0,6.291584,25.74298,0.4027135,0,29.76379,-6.291585,8307.929,46009.1
760,38.0,-6.333451,-0.4042393,0.01123046,0,0,0,0,0,6.333451,25.91429,0.4042393,0,29.99475,-6.333451,8320.168,45878.1
765,38.25,-6.375184,-0.4055525,0.01126694,0,0,0,0,0,6.375184,26.08504,0.4055525,0,30.2255,-6.375184,8327.957,45725.8
770,38.5,-6.416651,-0.4069302,0.01130522,0,0,0,0,0,6.416651,26.25471,0.4069301,0,30.4553,-6.416651,8337.066,45584.7
775,38.75,-6.458518,-0.4085126,0.01134918,0,0,0,0,0,6.458518,26.42601,0.4085126,0,30.68787,-6.458518,8350.044,45465.3
780,39.0,-6.500384,-0.4098256,0.01138566,0,0,0,0,0,6.500384,26.59732,0.4098256,0,30.92097,-6.500384,8357.379,45317.6
785,39.25,-6.541584,-0.4113958,0.01142928,0,0,0,0,0,6.541584,26.76589,0.4113958,0,31.15089,-6.541584,8370.133,45204.8
790,39.5,-6.583584,-0.4127452,0.01146677,0,0,0,0,0,6.583584,26.93774,0.4127452,0,31.38583,-6.583584,8377.881,45063.7
795,39.75,-6.625184,-0.4137762,0.01149541,0,0,0,0,0,6.625184,27.10795,0.4137762,0,31.61907,-6.625184,8379.241,44892.6
800,40.0,-6.666784,-0.4162793,0.01156495,0,0,0,0,0,6.666784,27.27817,0.4162793,0,31.85285,-6.666784,8410.246,44882.4
805,40.25,-6.708517,-0.4168755,0.01158152,0,0,0,0,0,6.708517,27.44892,0.4168755,0,32.08794,-6.708517,8402.516,44667
810,40.5,-6.749983,-0.4186789,0.01163162,0,0,0,0,0,6.749983,27.61859,0.4186789,0,32.32207,-6.749983,8419.13,44584.7
815,40.75,-6.79185,-0.4200032,0.01166841,0,0,0,0,0,6.79185,27.78989,0.4200032,0,32.55902,-6.79185,8425.772,44450
820,41.0,-6.833317,-0.4223343,0.01173317,0,0,0,0,0,6.833317,27.95956,0.4223343,0,32.79426,-6.833317,8452.629,44425.5
825,41.25,-6.874783,-0.423763,0.01177286,0,0,0,0,0,6.874784,28.12923,0.423763,0,33.03005,-6.874783,8461.249,44306.9
830,41.5,-6.91705,-0.4256867,0.01182631,0,0,0,0,0,6.917049,28.30217,0.4256867,0,33.27097,-6.91705,8479.205,44236.1
835,41.75,-6.958249,-0.4274292,0.01187472,0,0,0,0,0,6.95825,28.47074,0.4274292,0,33.50636,-6.958249,8493.897,44154.1
840,42.0,-7.000249,-0.4294023,0.01192953,0,0,0,0,0,7.000249,28.64259,0.4294023,0,33.7469,-7.000249,8512.605,44091.8
845,42.25,-7.041983,-0.4313342,0.0119832,0,0,0,0,0,7.041983,28.81335,0.4313342,0,33.98649,-7.041983,8530.442,44027.7
850,42.5,-7.083316,-0.4326355,0.01201936,0,0,0,0,0,7.083316,28.98247,0.4326355,0,34.22434,-7.083316,8535.85,43902.9
855,42.75,-7.125316,-0.4345326,0.01207206,0,0,0,0,0,7.125316,29.15432,0.4345326,0,34.46662,-7.125316,8552.534,43835.5
860,43.0,-7.166782,-0.4362289,0.01211919,0,0,0,0,0,7.166782,29.32399,0.4362289,0,34.70639,-7.166782,8565.36,43752
865,43.25,-7.208516,-0.437631,0.01215814,0,0,0,0,0,7.208516,29.49475,0.437631,0,34.9483,-7.208516,8572.128,43638.5
870,43.5,-7.250249,-0.4393747,0.01220658,0,0,0,0,0,7.250249,29.6655,0.4393747,0,35.19078,-7.250249,8585.438,43560.2
875,43.75,-7.291982,-0.4407005,0.01224342,0,0,0,0,0,7.291983,29.83626,0.4407005,0,35.43386,-7.291982,8590.439,43441.5
880,44.0,-7.333449,-0.442307,0.01228805,0,0,0,0,0,7.333448,30.00593,0.4423071,0,35.67596,-7.333449,8600.906,43353.4
885,44.25,-7.375048,-0.4435069,0.01232138,0,0,0,0,0,7.375049,30.17614,0.4435069,0,35.91944,-7.375048,8603.266,43225.8
890,44.5,-7.416915,-0.4449948,0.01236272,0,0,0,0,0,7.416915,30.34744,0.4449948,0,36.16508,-7.416915,8610.95,43126
895,44.75,-7.458382,-0.4464396,0.01240286,0,0,0,0,0,7.458382,30.51711,0.4464396,0,36.40897,-7.458382,8617.864,43025.4
900,45.0,-7.500115,-0.4475923,0.01243488,0,0,0,0,0,7.500115,30.68787,0.4475923,0,36.65502,-7.500115,8618.882,42896.5
905,45.25,-7.541848,-0.4493416,0.01248348,0,0,0,0,0,7.541848,30.85863,0.4493416,0,36.90169,-7.541848,8631.25,42825.9
910,45.5,-7.583315,-0.4512093,0.01253537,0,0,0,0,0,7.583315,31.02829,0.4512092,0,37.14738,-7.583315,8645.857,42768.7
915,45.75,-7.625181,-0.4525707,0.01257319,0,0,0,0,0,7.625181,31.1996,0.4525707,0,37.39606,-7.625181,8650.406,42662.2
920,46.0,-7.666781,-0.4542384,0.01261952,0,0,0,0,0,7.666781,31.36981,0.4542384,0,37.64376,-7.666781,8660.803,42587.1
925,46.25,-7.708648,-0.455748,0.01266146,0,0,0,0,0,7.708648,31.54111,0.455748,0,37.89368,-7.708648,8667.895,42496.6
930,46.5,-7.750114,-0.4574289,0.01270816,0,0,0,0,0,7.750114,31.71078,0.4574289,0,38.14183,-7.750114,8678.304,42425.1
935,46.75,-7.791714,-0.4592819,0.01275964,0,0,0,0,0,7.791714,31.88099,0.4592819,0,38.39139,-7.791714,8691.74,42369.5
940,47.0,-7.833715,-0.4603731,0.01278995,0,0,0,0,0,7.833714,32.05284,0.4603731,0,38.64399,-7.833715,8690.411,42242.5
945,47.25,-7.874914,-0.4625606,0.01285073,0,0,0,0,0,7.874915,32.22142,0.4625606,0,38.89239,-7.874914,8710.041,42221.2
950,47.5,-7.916648,-0.4637297,0.01288321,0,0,0,0,0,7.916648,32.39218,0.4637296,0,39.14465,-7.916648,8710.055,42104.7
955,47.75,-7.958914,-0.4649833,0.01291803,0,0,0,0,0,7.958914,32.56512,0.4649833,0,39.40077,-7.958914,8711.261,41994.3
960,48.0,-7.999848,-0.465907,0.0129437,0,0,0,0,0,7.999847,32.7326,0.465907,0,39.64945,-7.999848,8706.888,41862.5
965,48.25,-8.041714,-0.4671934,0.01297943,0,0,0,0,0,8.041715,32.9039,0.4671934,0,39.90443,-8.041714,8708.694,41759.5
970,48.5,-8.08358,-0.4682382,0.01300846,0,0,0,0,0,8.08358,33.0752,0.4682381,0,40.16007,-8.08358,8705.885,41636.1
975,48.75,-8.125047,-0.4680472,0.01300315,0,0,0,0,0,8.125047,33.24487,0.4680472,0,40.41391,-8.125047,8680.272,41406.7
980,49.0,-8.166781,-0.4696341,0.01304724,0,0,0,0,0,8.16678,33.41563,0.4696341,0,40.67004,-8.166781,8687.424,41334.8
985,49.25,-8.20838,-0.4692082,0.01303541,0,0,0,0,0,8.20838,33.58584,0.4692082,0,40.92599,-8.20838,8657.358,41088
990,49.5,-8.250247,-0.4702869,0.01306538,0,0,0,0,0,8.250247,33.75715,0.4702869,0,41.18426,-8.250247,8654.879,40973.5
995,49.75,-8.291713,-0.4703478,0.01306707,0,0,0,0,0,8.291713,33.92681,0.4703478,0,41.44072,-8.291713,8633.829,40773.9
1000,50.0,-8.33358,-0.4710234,0.01308584,0,0,0,0,0,8.33358,34.09812,0.4710234,0,41.70032,-8.33358,8623.814,40627.3
1005,50.25,-8.37518,-0.4716011,0.01310189,0,0,0,0,0,8.37518,34.26833,0.4716011,0,41.95893,-8.37518,8612.089,40475.1
1010,50.5,-8.416646,-0.4723057,0.01312146,0,0,0,0,0,8.416646,34.438,0.4723057,0,42.21739,-8.416646,8602.695,40335.9
1015,50.75,-8.458646,-0.4734648,0.01315366,0,0,0,0,0,8.458646,34.60984,0.4734648,0,42.47985,-8.458646,8601.202,40234.1
1020,51.0,-8.500113,-0.4742048,0.01317422,0,0,0,0,0,8.500113,34.77951,0.4742048,0,42.73966,-8.500113,8592.293,40100.4
1025,51.25,-8.541713,-0.4752007,0.01320189,0,0,0,0,0,8.541713,34.94972,0.4752007,0,43.00097,-8.541713,8587.867,39988.9
1030,51.5,-8.583446,-0.4762706,0.01323161,0,0,0,0,0,8.583447,35.12048,0.4762706,0,43.26382,-8.583446,8584.608,39884.1
1035,51.75,-8.625313,-0.4772356,0.01325842,0,0,0,0,0,8.625313,35.29179,0.4772356,0,43.52821,-8.625313,8579.289,39770.9
1040,52.0,-8.666912,-0.4779985,0.01327962,0,0,0,0,0,8.666912,35.462,0.4779985,0,43.79159,-8.666912,8570.401,39643.3
1045,52.25,-8.708379,-0.478549,0.01329491,0,0,0,0,0,8.708379,35.63167,0.478549,0,44.05484,-8.708379,8557.713,39499.9
1050,52.5,-8.750379,-0.4793571,0.01331736,0,0,0,0,0,8.75038,35.80352,0.4793571,0,44.32217,-8.750379,8549.279,39376.7
1055,52.75,-8.791845,-0.4797341,0.01332784,0,0,0,0,0,8.791845,35.97318,0.4797341,0,44.58681,-8.791845,8533.391,39221.8
1060,53.0,-8.833311,-0.4803108,0.01334386,0,0,0,0,0,8.833311,36.14285,0.4803108,0,44.85216,-8.833311,8521.008,39084.6
1065,53.25,-8.875312,-0.4809472,0.01336154,0,0,0,0,0,8.875312,36.3147,0.4809471,0,45.12164,-8.875312,8509.335,38951.2
1070,53.5,-8.916778,-0.4812824,0.01337085,0,0,0,0,0,8.916779,36.48436,0.4812824,0,45.38841,-8.916778,8492.581,38797.1
1075,53.75,-8.958378,-0.4815012,0.01337693,0,0,0,0,0,8.958378,36.65458,0.4815012,0,45.65675,-8.958378,8473.673,38634.5
1080,54.0,-9.000245,-0.4818964,0.01338791,0,0,0,0,0,9.000244,36.82588,0.4818964,0,45.92754,-9.000245,8457.695,38486.3
1085,54.25,-9.041712,-0.4820345,0.01339175,0,0,0,0,0,9.041712,36.99555,0.4820345,0,46.19648,-9.041712,8437.396,38320.8
1090,54.5,-9.083311,-0.4825628,0.01340642,0,0,0,0,0,9.083311,37.16576,0.4825628,0,46.467,-9.083311,8423.824,38187.1
1095,54.75,-9.125178,-0.4827009,0.01341026,0,0,0,0,0,9.125177,37.33706,0.4827009,0,46.74,-9.125178,8403.263,38022.8
1100,55.0,-9.167044,-0.4829726,0.01341781,0,0,0,0,0,9.167045,37.50837,0.4829727,0,47.01375,-9.167044,8385.008,37870.5
1105,55.25,-9.208244,-0.4833247,0.01342759,0,0,0,0,0,9.208244,37.67694,0.4833247,0,47.28387,-9.208244,8368.484,37728.5
1110,55.5,-9.250244,-0.4840025,0.01344642,0,0,0,0,0,9.250244,37.84879,0.4840025,0,47.55999,-9.250244,8357.112,37609.9
1115,55.75,-9.291978,-0.4845491,0.0134616,0,0,0,0,0,9.291978,38.01955,0.484549,0,47.83511,-9.291978,8343.563,37483.2
1120,56.0,-9.333444,-0.4852969,0.01348238,0,0,0,0,0,9.333444,38.18921,0.4852969,0,48.10923,-9.333444,8333.566,37374.3
1125,56.25,-9.375177,-0.4859005,0.01349915,0,0,0,0,0,9.375177,38.35997,0.4859005,0,48.38587,-9.375177,8320.879,37254.2
1130,56.5,-9.416644,-0.4866195,0.01351913,0,0,0,0,0,9.416643,38.52964,0.4866196,0,48.6615,-9.416644,8310.256,37145
1135,56.75,-9.45851,-0.4868929,0.01352672,0,0,0,0,0,9.45851,38.70094,0.4868929,0,48.94057,-9.45851,8291.753,37001.4
1140,57.0,-9.499977,-0.4874456,0.01354207,0,0,0,0,0,9.499977,38.87061,0.4874456,0,49.21774,-9.499977,8278.188,36881.7
1145,57.25,-9.54171,-0.4877148,0.01354955,0,0,0,0,0,9.54171,39.04137,0.4877148,0,49.49747,-9.54171,8259.623,36740.7
1150,57.5,-9.58371,-0.4876755,0.01354846,0,0,0,0,0,9.58371,39.21321,0.4876755,0,49.77978,-9.58371,8235.675,36576.7
1155,57.75,-9.62491,-0.4876147,0.01354677,0,0,0,0,0,9.624909,39.38179,0.4876147,0,50.05749,-9.62491,8211.812,36415.6
1160,58.0,-9.666909,-0.487833,0.01355284,0,0,0,0,0,9.666909,39.55364,0.4878331,0,50.34138,-9.666909,8192.198,36273.6
1165,58.25,-9.708643,-0.4880991,0.01356023,0,0,0,0,0,9.708643,39.7244,0.4880991,0,50.62428,-9.708643,8173.511,36137.4
1170,58.5,-9.749976,-0.4880573,0.01355907,0,0,0,0,0,9.749976,39.89352,0.4880573,0,50.90525,-9.749976,8149.88,35981.1
1175,58.75,-9.791976,-0.4886442,0.01357538,0,0,0,0,0,9.791976,40.06537,0.4886442,0,51.19157,-9.791976,8136.352,35869.9
1180,59.0,-9.833443,-0.4887749,0.01357901,0,0,0,0,0,9.833443,40.23503,0.4887749,0,51.47506,-9.833443,8115.488,35728.2
1185,59.25,-9.875042,-0.4890519,0.0135867,0,0,0,0,0,9.875042,40.40525,0.4890519,0,51.76027,-9.875042,8096.962,35597.8
1190,59.5,-9.916776,-0.4893592,0.01359524,0,0,0,0,0,9.916776,40.57601,0.4893592,0,52.04721,-9.916776,8078.834,35470.3
1195,59.75,-9.958643,-0.4892941,0.01359343,0,0,0,0,0,9.958643,40.74731,0.4892941,0,52.3359,-9.958643,8054.473,35316.5
1200,60.0,-9.999976,-0.4892278,0.01359159,0,0,0,0,0,9.999975,40.91643,0.4892278,0,52.62173,-9.999976,8030.395,35165.7
1205,60.25,-10.04171,-0.4893425,0.01359477,0,0,0,0,0,10.04171,41.08719,0.4893425,0,52.91116,-10.04171,8009.063,35027.8
1210,60.5,-10.08358,-0.4892609,0.01359251,0,0,0,0,0,10.08358,41.25849,0.4892609,0,53.20236,-10.08358,7984.443,34876.5
1215,60.75,-10.12491,-0.4891642,0.01358982,0,0,0,0,0,10.12491,41.42761,0.4891642,0,53.49068,-10.12491,7959.883,34727.3
1220,61.0,-10.16678,-0.4890327,0.01358617,0,0,0,0,0,10.16678,41.59892,0.4890327,0,53.78358,-10.16678,7934.469,34575
1225,61.25,-10.20851,-0.4890218,0.01358586,0,0,0,0,0,10.20851,41.76968,0.4890218,0,54.07639,-10.20851,7911.093,34432.9
1230,61.5,-10.25011,-0.4892573,0.01359241,0,0,0,0,0,10.25011,41.93989,0.4892573,0,54.36913,-10.25011,7891.768,34309.6
1235,61.75,-10.29184,-0.4887752,0.01357901,0,0,0,0,0,10.29184,42.11065,0.4887752,0,54.66367,-10.29184,7860.803,34136.8
1240,62.0,-10.33344,-0.4887517,0.01357836,0,0,0,0,0,10.33344,42.28086,0.4887517,0,54.95813,-10.33344,7837.314,33997.8
1245,62.25,-10.37531,-0.4892042,0.01359093,0,0,0,0,0,10.37531,42.45216,0.4892042,0,55.25536,-10.37531,7821.288,33891.9
1250,62.5,-10.41678,-0.4888404,0.01358083,0,0,0,0,0,10.41677,42.62183,0.4888404,0,55.55063,-10.41678,7792.429,33731.9
1255,62.75,-10.45851,-0.4882313,0.0135639,0,0,0,0,0,10.45851,42.79258,0.4882313,0,55.84866,-10.45851,7759.559,33555.5
1260,63.0,-10.50051,-0.4889977,0.0135852,0,0,0,0,0,10.50051,42.96443,0.4889977,0,56.14951,-10.50051,7748.394,33473.7
1265,63.25,-10.54157,-0.4897146,0.01360511,0,0,0,0,0,10.54157,43.13247,0.4897146,0,56.44455,-10.54157,7736.892,33392.2
1270,63.5,-10.58344,-0.4909129,0.0136384,0,0,0,0,0,10.58344,43.30377,0.4909129,0,56.74624,-10.58344,7732.461,33341.5
1275,63.75,-10.62531,-0.4921984,0.01367412,0,0,0,0,0,10.62531,43.47507,0.4921984,0,57.04884,-10.62531,7729.285,33297.1
1280,64.0,-10.66664,-0.4934492,0.01370887,0,0,0,0,0,10.66664,43.64419,0.4934492,0,57.34849,-10.66664,7725.742,33252.3
1285,64.25,-10.70851,-0.4950046,0.01375208,0,0,0,0,0,10.70851,43.81549,0.4950046,0,57.65292,-10.70851,7726.537,33226.7
1290,64.5,-10.75037,-0.4967048,0.01379931,0,0,0,0,0,10.75037,43.9868,0.4967048,0,57.95828,-10.75037,7729.437,33211
1295,64.75,-10.79184,-0.4983612,0.01384533,0,0,0,0,0,10.79184,44.15646,0.4983612,0,58.26164,-10.79184,7731.722,33193.7
1300,65.0,-10.83344,-0.5000376,0.0138919,0,0,0,0,0,10.83344,44.32668,0.5000376,0,58.56691,-10.83344,7734.084,33177.5
1305,65.25,-10.87517,-0.502518,0.01396081,0,0,0,0,0,10.87517,44.49744,0.502518,0,58.8741,-10.87517,7748.609,33214.1
1310,65.5,-10.91691,-0.5043632,0.01401208,0,0,0,0,0,10.91691,44.66819,0.5043632,0,59.18223,-10.91691,7753.134,33208.6
1315,65.75,-10.95824,-0.5063067,0.01406607,0,0,0,0,0,10.95824,44.83732,0.5063068,0,59.48835,-10.95824,7759.222,33210.9
1320,66.0,-11.00024,-0.508251,0.01412009,0,0,0,0,0,11.00024,45.00917,0.508251,0,59.80037,-11.00024,7764.753,33211.1
1325,66.25,-11.04184,-0.5103567,0.01417859,0,0,0,0,0,11.04184,45.17937,0.5103567,0,60.11037,-11.04184,7772.789,33223.1
1330,66.5,-11.08344,-0.5119925,0.01422403,0,0,0,0,0,11.08344,45.34959,0.5119925,0,60.42135,-11.08344,7773.491,33204.5
1335,66.75,-11.12517,-0.5137231,0.01427211,0,0,0,0,0,11.12517,45.52035,0.5137231,0,60.73429,-11.12517,7775.396,33191.7
1340,67.0,-11.16677,-0.5157319,0.01432792,0,0,0,0,0,11.16677,45.69056,0.5157319,0,61.04721,-11.16677,7781.412,33197.4
1345,67.25,-11.20837,-0.5171998,0.0143687,0,0,0,0,0,11.20837,45.86077,0.5171998,0,61.36112,-11.20837,7779.102,33168.3
1350,67.5,-11.25024,-0.5190128,0.01441907,0,0,0,0,0,11.25024,46.03207,0.5190127,0,61.67803,-11.25024,7781.671,33160.7
1355,67.75,-11.29197,-0.5214364,0.0144864,0,0,0,0,0,11.29197,46.20283,0.5214363,0,61.99494,-11.29197,7793.271,33192.4
1360,68.0,-11.33371,-0.5236343,0.01454746,0,0,0,0,0,11.33371,46.37359,0.5236343,0,62.31286,-11.33371,7801.281,33209.6
1365,68.25,-11.37504,-0.5253873,0.01459616,0,0,0,0,0,11.37504,46.54271,0.5253873,0,62.62872,-11.37504,7802.712,33199.7
1370,68.5,-11.41704,-0.5272783,0.0146487,0,0,0,0,0,11.41704,46.71456,0.5272782,0,62.95071,-11.41704,7805.622,33196.6
1375,68.75,-11.45851,-0.5294846,0.01470999,0,0,0,0,0,11.45851,46.88423,0.5294846,0,63.26963,-11.45851,7813.326,33214.9
1380,69.0,-11.50011,-0.5315516,0.01476742,0,0,0,0,0,11.5001,47.05444,0.5315516,0,63.5906,-11.50011,7818.691,33223.9
1385,69.25,-11.54197,-0.53362,0.01482488,0,0,0,0,0,11.54197,47.22575,0.5336201,0,63.91467,-11.54197,7823.72,33232.2
1390,69.5,-11.58344,-0.5357023,0.01488273,0,0,0,0,0,11.58344,47.39541,0.5357023,0,64.23668,-11.58344,7828.999,33242.5
1395,69.75,-11.62491,-0.5378926,0.01494358,0,0,0,0,0,11.62491,47.56508,0.5378926,0,64.55974,-11.62491,7835.655,33259.3
1400,70.0,-11.66691,-0.5394433,0.01498666,0,0,0,0,0,11.66691,47.73693,0.5394433,0,64.88801,-11.66691,7832.489,33235.1
1405,70.25,-11.70837,-0.5422168,0.01506371,0,0,0,0,0,11.70837,47.90659,0.5422168,0,65.21318,-11.70837,7847.202,33287.7
1410,70.5,-11.74997,-0.5442182,0.01511932,0,0,0,0,0,11.74997,48.07681,0.5442182,0,65.54046,-11.74997,7850.432,33292.3
1415,70.75,-11.79184,-0.5464127,0.01518028,0,0,0,0,0,11.79184,48.24811,0.5464126,0,65.87093,-11.79184,7856.083,33307.8
1420,71.0,-11.8337,-0.5489908,0.01525191,0,0,0,0,0,11.8337,48.41941,0.5489908,0,66.20248,-11.8337,7867.023,33346.6
1425,71.25,-11.87504,-0.551006,0.01530789,0,0,0,0,0,11.87504,48.58854,0.551006,0,66.5309,-11.87504,7870.012,33352.5
1430,71.5,-11.9169,-0.5536921,0.01538252,0,0,0,0,0,11.9169,48.75984,0.5536921,0,66.86466,-11.9169,7882.026,33397.4
1435,71.75,-11.95864,-0.5561791,0.01545161,0,0,0,0,0,11.95864,48.9306,0.5561791,0,67.19846,-11.95864,7891.045,33430.3
1440,72.0,-12.0001,-0.558888,0.01552687,0,0,0,0,0,12.0001,49.10026,0.558888,0,67.53124,-12.0001,7903.135,33477.1
1445,72.25,-12.04197,-0.561521,0.01560002,0,0,0,0,0,12.04197,49.27157,0.5615209,0,67.86836,-12.04197,7913.644,33517.8
1450,72.5,-12.0833,-0.5646769,0.01568769,0,0,0,0,0,12.0833,49.44069,0.5646769,0,68.2023,-12.0833,7931.59,33590.9
1455,72.75,-12.12517,-0.5665074,0.01573855,0,0,0,0,0,12.12517,49.61199,0.5665074,0,68.5417,-12.12517,7930.341,33583.4
1460,73.0,-12.16664,-0.5700512,0.015837,0,0,0,0,0,12.16664,49.78166,0.5700512,0,68.87898,-12.16664,7953.08,33678.3
1465,73.25,-12.20837,-0.5716588,0.01588166,0,0,0,0,0,12.20837,49.95242,0.5716588,0,69.2196,-12.20837,7948.388,33657.9
1470,73.5,-12.25037,-0.5763752,0.01601269,0,0,0,0,0,12.25037,50.12426,0.5763752,0,69.56356,-12.25037,7986.449,33819.2
1475,73.75,-12.29157,-0.5775653,0.01604576,0,0,0,0,0,12.29157,50.29284,0.5775653,0,69.90212,-12.29157,7975.889,33775.4
1480,74.0,-12.33357,-0.5813623,0.01615124,0,0,0,0,0,12.33357,50.46469,0.5813623,0,70.24844,-12.33357,8000.568,33881.7
1485,74.25,-12.3753,-0.5835602,0.01621231,0,0,0,0,0,12.3753,50.63545,0.5835602,0,70.59376,-12.3753,8003.131,33895.1
1490,74.5,-12.41664,-0.587247,0.01631473,0,0,0,0,0,12.41664,50.80457,0.5872471,0,70.93694,-12.41664,8026.102,33995.7
1495,74.75,-12.45864,-0.5893663,0.01637361,0,0,0,0,0,12.45864,50.97642,0.5893663,0,71.28687,-12.45864,8026.929,34003.4
1500,75.0,-12.50024,-0.5929989,0.01647453,0,0,0,0,0,12.50024,51.14663,0.5929989,0,71.63468,-12.50024,8048.363,34099.1
1505,75.25,-12.54184,-0.5955965,0.01654669,0,0,0,0,0,12.54184,51.31684,0.5955965,0,71.9837,-12.54184,8055.453,34134.9
1510,75.5,-12.58344,-0.5984844,0.01662693,0,0,0,0,0,12.58344,51.48706,0.5984845,0,72.33395,-12.58344,8066.211,34187
1515,75.75,-12.62517,-0.6013977,0.01670786,0,0,0,0,0,12.62517,51.65781,0.6013978,0,72.68655,-12.62517,8076.946,34239.9
1520,76.0,-12.66677,-0.6052139,0.01681388,0,0,0,0,0,12.66677,51.82803,0.6052139,0,73.03928,-12.66677,8099.578,34344
1525,76.25,-12.70837,-0.6067698,0.01685711,0,0,0,0,0,12.70837,51.99823,0.6067699,0,73.39324,-12.70837,8091.709,34319.5
1530,76.5,-12.75024,-0.610489,0.01696043,0,0,0,0,0,12.75024,52.16954,0.610489,0,73.75075,-12.75024,8112.253,34416.5
1535,76.75,-12.79157,-0.6111048,0.01697754,0,0,0,0,0,12.79157,52.33866,0.6111048,0,74.10496,-12.79157,8091.724,34339.9
1540,77.0,-12.8333,-0.615121,0.01708912,0,0,0,0,0,12.8333,52.50942,0.615121,0,74.46388,-12.8333,8115.721,34453.2
1545,77.25,-12.87543,-0.6179844,0.01716867,0,0,0,0,0,12.87543,52.68181,0.6179844,0,74.82754,-12.87543,8123.902,34500.3
1550,77.5,-12.91677,-0.6198253,0.01721981,0,0,0,0,0,12.91677,52.85094,0.6198253,0,75.1856,-12.91677,8118.979,34492.3
1555,77.75,-12.9585,-0.6223376,0.01728961,0,0,0,0,0,12.9585,53.02169,0.6223376,0,75.54842,-12.9585,8122.365,34520.6
1560,78.0,-13.0001,-0.6261887,0.0173966,0,0,0,0,0,13.0001,53.19191,0.6261888,0,75.9114,-13.0001,8143.016,34623.1
1565,78.25,-13.04197,-0.6280226,0.01744755,0,0,0,0,0,13.04197,53.36321,0.6280226,0,76.27805,-13.04197,8136.975,34613
1570,78.5,-13.08357,-0.6312806,0.01753806,0,0,0,0,0,13.08357,53.53342,0.6312806,0,76.64368,-13.08357,8149.336,34681.9
1575,78.75,-13.12503,-0.6344332,0.01762564,0,0,0,0,0,13.12504,53.70309,0.6344332,0,77.00949,-13.12503,8160.129,34745
1580,79.0,-13.16717,-0.6382486,0.01773164,0,0,0,0,0,13.16717,53.87548,0.6382486,0,77.38256,-13.16717,8178.634,34842.1
1585,79.25,-13.20823,-0.6412195,0.01781418,0,0,0,0,0,13.20823,54.04351,0.6412196,0,77.74752,-13.20823,8186.771,34895.5
1590,79.5,-13.24997,-0.6453617,0.01792926,0,0,0,0,0,13.24997,54.21427,0.6453617,0,78.11977,-13.24997,8209.041,35010.3
1595,79.75,-13.29197,-0.6475561,0.01799022,0,0,0,0,0,13.29197,54.38612,0.6475561,0,78.49581,-13.29197,8206.038,35018.3
1600,80.0,-13.3333,-0.6519302,0.01811174,0,0,0,0,0,13.3333,54.55524,0.6519302,0,78.86727,-13.3333,8230.836,35145.6
1605,80.25,-13.37517,-0.6538335,0.01816462,0,0,0,0,0,13.37517,54.72655,0.6538334,0,79.24493,-13.37517,8223.749,35137.8
1610,80.50001,-13.4169,-0.6581643,0.01828494,0,0,0,0,0,13.4169,54.8973,0.6581643,0,79.62281,-13.4169,8246.999,35260.6
1615,80.75001,-13.4585,-0.6599025,0.01833322,0,0,0,0,0,13.4585,55.06752,0.6599025,0,80.00092,-13.4585,8237.574,35244.4
1620,81.00001,-13.5001,-0.6645156,0.01846138,0,0,0,0,0,13.5001,55.23772,0.6645156,0,80.38045,-13.5001,8263.735,35381.4
1625,81.25001,-13.54197,-0.6671441,0.01853441,0,0,0,0,0,13.54197,55.40903,0.6671441,0,80.76388,-13.54197,8264.672,35411.6
1630,81.50001,-13.58357,-0.6709965,0.01864144,0,0,0,0,0,13.58357,55.57924,0.6709965,0,81.14633,-13.58357,8280.667,35507
1635,81.75001,-13.62503,-0.6738847,0.01872167,0,0,0,0,0,13.62503,55.74891,0.6738847,0,81.52901,-13.62503,8284.545,35551.3
1640,82.00001,-13.6669,-0.6773666,0.01881841,0,0,0,0,0,13.6669,55.92021,0.6773666,0,81.91688,-13.6669,8295.113,35625.5
1645,82.25001,-13.70837,-0.6801764,0.01889647,0,0,0,0,0,13.70837,56.08988,0.6801764,0,82.30253,-13.70837,8297.462,35665.1
1650,82.50001,-13.74997,-0.6836621,0.01899331,0,0,0,0,0,13.74997,56.26009,0.6836621,0,82.69093,-13.74997,8307.655,35739.4
1655,82.75001,-13.79183,-0.6872825,0.01909389,0,0,0,0,0,13.79183,56.4314,0.6872825,0,83.08334,-13.79183,8318.94,35819.6
1660,83.00001,-13.8333,-0.6904082,0.01918073,0,0,0,0,0,13.8333,56.60106,0.6904082,0,83.47352,-13.8333,8324.231,35874.6
1665,83.25001,-13.87517,-0.6940473,0.01928183,0,0,0,0,0,13.87517,56.77237,0.6940473,0,83.86902,-13.87517,8335.077,35954.9
1670,83.50001,-13.9169,-0.6978292,0.01938689,0,0,0,0,0,13.9169,56.94312,0.6978292,0,84.26482,-13.9169,8347.39,36042.4
1675,83.75001,-13.9585,-0.7004207,0.01945889,0,0,0,0,0,13.9585,57.11333,0.7004207,0,84.66092,-13.9585,8345.269,36068.5
1680,84.00001,-14.00023,-0.7046867,0.01957741,0,0,0,0,0,14.00023,57.28409,0.7046868,0,85.05988,-14.00023,8362.667,36180
1685,84.25001,-14.0417,-0.7087806,0.01969114,0,0,0,0,0,14.0417,57.45376,0.7087806,0,85.45788,-14.0417,8377.84,36282.7
1690,84.50001,-14.0837,-0.7120943,0.0197832,0,0,0,0,0,14.0837,57.62561,0.7120943,0,85.8626,-14.0837,8383.011,36343.6
1695,84.75001,-14.12517,-0.7164807,0.01990506,0,0,0,0,0,14.12517,57.79528,0.7164807,0,86.2638,-14.12517,8400.877,36460.1
1700,85.00001,-14.16663,-0.7192458,0.01998188,0,0,0,0,0,14.16663,57.96494,0.7192457,0,86.66662,-14.16663,8399.396,36493.7
1705,85.25001,-14.20877,-0.7240289,0.02011477,0,0,0,0,0,14.20877,58.13734,0.7240289,0,87.07759,-14.20877,8420.577,36627.5
1710,85.50001,-14.25023,-0.7269531,0.020196,0,0,0,0,0,14.25023,58.307,0.726953,0,87.4837,-14.25023,8420.319,36668.4
1715,85.75001,-14.29156,-0.7303052,0.02028913,0,0,0,0,0,14.29156,58.47612,0.7303053,0,87.89016,-14.29156,8424.834,36730.9
1720,86.00001,-14.33343,-0.733528,0.02037867,0,0,0,0,0,14.33343,58.64743,0.733528,0,88.30356,-14.33343,8427.103,36785.3
1725,86.25001,-14.37517,-0.738193,0.02050827,0,0,0,0,0,14.37516,58.81819,0.738193,0,88.71735,-14.37517,8445.677,36911.7
1730,86.50001,-14.41676,-0.7408981,0.02058342,0,0,0,0,0,14.41676,58.9884,0.7408981,0,89.13152,-14.41676,8441.591,36940.1
1735,86.75001,-14.4585,-0.747263,0.02076025,0,0,0,0,0,14.4585,59.15916,0.747263,0,89.54876,-14.4585,8478.661,37149.9
1740,87.00001,-14.50036,-0.7513859,0.02087479,0,0,0,0,0,14.50036,59.33046,0.7513859,0,89.96908,-14.50036,8489.681,37247
1745,87.25001,-14.5417,-0.7570321,0.02103165,0,0,0,0,0,14.5417,59.49958,0.7570321,0,90.38579,-14.5417,8517.907,37420.2
1750,87.50001,-14.58356,-0.7620653,0.02117148,0,0,0,0,0,14.58356,59.67089,0.7620652,0,90.80965,-14.58356,8538.271,37560.9
1755,87.75001,-14.62516,-0.7680363,0.02133737,0,0,0,0,0,14.62516,59.8411,0.7680362,0,91.23261,-14.62516,8568.852,37747.5
1760,88.00001,-14.6669,-0.7734259,0.0214871,0,0,0,0,0,14.6669,60.01186,0.7734259,0,91.65871,-14.6669,8592.292,37904.2
1765,88.25001,-14.7085,-0.7791807,0.02164698,0,0,0,0,0,14.7085,60.18207,0.7791807,0,92.08528,-14.7085,8619.379,38078.3
1770,88.50001,-14.7501,-0.7857389,0.02182917,0,0,0,0,0,14.7501,60.35228,0.7857389,0,92.51367,-14.7501,8654.77,38290.5
1775,88.75001,-14.79196,-0.7915858,0.02199161,0,0,0,0,0,14.79196,60.52358,0.7915858,0,92.94667,-14.79196,8681.5,38466.2
1780,89.00001,-14.8333,-0.7985023,0.02218376,0,0,0,0,0,14.8333,60.6927,0.7985023,0,93.376,-14.8333,8719.838,38694.2
1785,89.25001,-14.87503,-0.8056037,0.02238105,0,0,0,0,0,14.87503,60.86346,0.8056037,0,93.81137,-14.87503,8759.169,38928.8
1790,89.50001,-14.91703,-0.8126557,0.02257697,0,0,0,0,0,14.91703,61.03531,0.8126557,0,94.25144,-14.91703,8797.046,39159
1795,89.75001,-14.95823,-0.8189332,0.02275137,0,0,0,0,0,14.95823,61.20389,0.8189332,0,94.68501,-14.95823,8826.647,39352.8
1800,90.00001,-15.00023,-0.8263963,0.02295871,0,0,0,0,0,15.00023,61.37574,0.8263963,0,95.12895,-15.00023,8867.632,39600.2
1805,90.25001,-15.04196,-0.8334994,0.02315604,0,0,0,0,0,15.04196,61.54649,0.8334994,0,95.57203,-15.04196,8904.31,39829.8
1807,90.316,-15.05276,-0.8351638,0.02320228,0,0,0,0,0,15.05276,61.59068,0.8351638,0,95.68701,-15.05276,8911.838,39880.7