File: GFBaking/em/1_g7_3.csv
,Time sec,Extension mm,Load kgf,Compressive stress MPa,Cycle Count ,Total Cycle Count ,Repetitions Count ,Marked Data ,PIP Count ,Compressive extension mm,Compressive strain %,Compressive load kgf,Displacement (Strain 1) mm,True strain %,Corrected Position mm,True stress Pa,Elastic Modulus
0,0.0,-0.000133333,-0.01051969,0.0002726243,0,0,0,0,0,-2.777726e-20,-1.084202e-19,0.01051969,0,0.0,-0.000133333,272.6243,-2.72221e+23
5,0.25,-0.03453325,-0.01309548,0.0003393776,0,0,0,0,0,0.03439992,0.1342698,0.01309548,0,0.13436,-0.03453325,338.9219,273635
10,0.5,-0.08186647,-0.01629944,0.0004224103,0,0,0,0,0,0.08173314,0.3190208,0.01629945,0,0.3195308,-0.08186647,421.0628,143345
15,0.7500001,-0.1247997,-0.01922264,0.0004981667,0,0,0,0,0,0.1246664,0.4865978,0.01922264,0,0.4877856,-0.1247997,495.7427,110833
20,1.0,-0.1666663,-0.0216032,0.0005598605,0,0,0,0,0,0.1665329,0.6500114,0.0216032,0,0.6521332,-0.1666663,556.2213,93245
25,1.25,-0.2085328,-0.02439524,0.000632218,0,0,0,0,0,0.2083995,0.8134251,0.02439524,0,0.8167514,-0.2085328,627.0754,84142.6
30,1.5,-0.2501327,-0.02727974,0.0007069716,0,0,0,0,0,0.2499994,0.9757978,0.02727974,0,0.9805899,-0.2501327,700.0729,78434.8
35,1.75,-0.2919993,-0.03038004,0.0007873179,0,0,0,0,0,0.2918659,1.139211,0.03038004,0,1.14575,-0.2919993,778.3487,74819.1
40,2.0,-0.3333325,-0.03361421,0.0008711335,0,0,0,0,0,0.3331992,1.300543,0.03361421,0,1.309074,-0.3333325,859.804,72514.7
45,2.25,-0.3750657,-0.03727676,0.0009660507,0,0,0,0,0,0.3749324,1.463436,0.03727676,0,1.47425,-0.3750657,951.9131,71464.8
50,2.5,-0.4170657,-0.04093673,0.001060901,0,0,0,0,0,0.4169323,1.62737,0.04093673,0,1.640758,-0.4170657,1043.636,70575.7
55,2.75,-0.4583989,-0.04480524,0.001161156,0,0,0,0,0,0.4582655,1.788702,0.04480524,0,1.804893,-0.4583989,1140.386,70277.9
60,3.0,-0.5005321,-0.04919331,0.001274875,0,0,0,0,0,0.5003988,1.953157,0.04919331,0,1.972483,-0.5005321,1249.975,70663.8
65,3.25,-0.5418654,-0.05355905,0.001388017,0,0,0,0,0,0.5417321,2.114489,0.05355905,0,2.137164,-0.5418654,1358.667,71065
70,3.5,-0.5834653,-0.05807517,0.001505054,0,0,0,0,0,0.583332,2.276862,0.05807517,0,2.303183,-0.5834653,1470.786,71561.9
75,3.75,-0.6254651,-0.06272011,0.001625431,0,0,0,0,0,0.6253318,2.440795,0.06272011,0,2.471077,-0.6254651,1585.758,72094.7
80,4.0,-0.6667984,-0.06741631,0.001747136,0,0,0,0,0,0.6666651,2.602128,0.06741631,0,2.636582,-0.6667984,1701.673,72688.3
85,4.25,-0.7083983,-0.0721647,0.001870194,0,0,0,0,0,0.7082649,2.7645,0.0721647,0,2.803432,-0.7083983,1818.492,73238
90,4.5,-0.7502649,-0.07723425,0.002001574,0,0,0,0,0,0.7501315,2.927914,0.07723425,0,2.971633,-0.7502649,1942.97,74008.2
95,4.75,-0.7918648,-0.08199279,0.002124895,0,0,0,0,0,0.7917314,3.090286,0.08199279,0,3.139043,-0.7918648,2059.229,74439.8
100,5.0,-0.8334646,-0.08732014,0.002262956,0,0,0,0,0,0.8333313,3.252659,0.08732013,0,3.306734,-0.8334646,2189.35,75318.9
105,5.25,-0.8751979,-0.09242975,0.002395375,0,0,0,0,0,0.8750645,3.415552,0.09242975,0,3.475246,-0.8751979,2313.56,75924
110,5.5,-0.9170644,-0.09781007,0.002534809,0,0,0,0,0,0.9169312,3.578966,0.09781007,0,3.644582,-0.9170644,2444.089,76675.1
115,5.75,-0.9583976,-0.1029448,0.00266788,0,0,0,0,0,0.9582643,3.740298,0.1029448,0,3.812042,-0.9583976,2568.094,77219.4
120,6.0,-1.000398,-0.1083555,0.002808102,0,0,0,0,0,1.000264,3.904232,0.1083555,0,3.982491,-1.000398,2698.467,77865.2
125,6.25,-1.041864,-0.1139263,0.002952471,0,0,0,0,0,1.041731,4.066084,0.1139263,0,4.151061,-1.041864,2832.421,78609.6
130,6.5,-1.083597,-0.1193869,0.003093987,0,0,0,0,0,1.083464,4.228978,0.1193869,0,4.321003,-1.083597,2963.143,79204.4
135,6.75,-1.125331,-0.1249293,0.003237621,0,0,0,0,0,1.125197,4.39187,0.1249293,0,4.491234,-1.125331,3095.429,79807.4
140,7.0,-1.166797,-0.1305,0.00338199,0,0,0,0,0,1.166664,4.553723,0.1305,0,4.660664,-1.166797,3227.984,80403
145,7.25,-1.208664,-0.1361868,0.003529367,0,0,0,0,0,1.20853,4.717136,0.1361868,0,4.832021,-1.208664,3362.882,81000
150,7.5,-1.249997,-0.1415628,0.003668689,0,0,0,0,0,1.249864,4.878469,0.1415628,0,5.001483,-1.249997,3489.713,81413
155,7.75,-1.29173,-0.1473309,0.003818173,0,0,0,0,0,1.291597,5.041362,0.1473309,0,5.172878,-1.29173,3625.685,81992.5
160,8.0,-1.33373,-0.1531802,0.003969762,0,0,0,0,0,1.333597,5.205296,0.1531802,0,5.345664,-1.33373,3763.124,82563
165,8.25,-1.37493,-0.1581749,0.004099201,0,0,0,0,0,1.374797,5.366107,0.1581749,0,5.51545,-1.37493,3879.234,82700.1
170,8.5,-1.41693,-0.1641835,0.004254918,0,0,0,0,0,1.416797,5.530041,0.1641835,0,5.68883,-1.41693,4019.619,83297
175,8.75,-1.458796,-0.1691702,0.004384153,0,0,0,0,0,1.458663,5.693455,0.1691702,0,5.861959,-1.458796,4134.543,83363.5
180,9.0,-1.500263,-0.1749121,0.004532957,0,0,0,0,0,1.50013,5.855307,0.1749121,0,6.03373,-1.500263,4267.538,83810.5
185,9.25,-1.541996,-0.1800212,0.004665363,0,0,0,0,0,1.541863,6.0182,0.1800212,0,6.206904,-1.541996,4384.592,83923.8
190,9.5,-1.583596,-0.1856649,0.004811622,0,0,0,0,0,1.583463,6.180573,0.1856649,0,6.379824,-1.583596,4514.236,84280.9
195,9.75,-1.625329,-0.1908837,0.004946872,0,0,0,0,0,1.625196,6.343466,0.1908837,0,6.553599,-1.625329,4633.068,84424.9
200,10.0,-1.666929,-0.1963009,0.005087261,0,0,0,0,0,1.666796,6.505839,0.1963009,0,6.72712,-1.666929,4756.292,84653.9
205,10.25,-1.708529,-0.2018693,0.005231571,0,0,0,0,0,1.708396,6.668212,0.2018694,0,6.900943,-1.708529,4882.719,84935.5
210,10.5,-1.750262,-0.2072923,0.00537211,0,0,0,0,0,1.750129,6.831105,0.2072923,0,7.075626,-1.750262,5005.136,85137.4
215,10.75,-1.791729,-0.2135191,0.005533481,0,0,0,0,0,1.791596,6.992958,0.2135191,0,7.249497,-1.791729,5146.527,85665.1
220,11.0,-1.833729,-0.2171989,0.005628846,0,0,0,0,0,1.833596,7.156891,0.2171989,0,7.425912,-1.833729,5225.995,85145.4
225,11.25,-1.875062,-0.2222369,0.005759408,0,0,0,0,0,1.874929,7.318223,0.2222369,0,7.599831,-1.875062,5337.922,85199.8
230,11.5,-1.916795,-0.2276442,0.005899542,0,0,0,0,0,1.916662,7.481116,0.2276442,0,7.775741,-1.916795,5458.191,85372.6
235,11.75,-1.958529,-0.2324069,0.006022972,0,0,0,0,0,1.958395,7.64401,0.2324069,0,7.951962,-1.958529,5562.575,85301.4
240,12.0,-2.000262,-0.2377689,0.006161931,0,0,0,0,0,2.000129,7.806903,0.2377689,0,8.128493,-2.000262,5680.875,85448.5
245,12.25,-2.041862,-0.2421679,0.006275933,0,0,0,0,0,2.041728,7.969275,0.2421679,0,8.30477,-2.041862,5775.787,85256.2
250,12.5,-2.083595,-0.2470247,0.006401799,0,0,0,0,0,2.083462,8.132169,0.2470247,0,8.481926,-2.083595,5881.194,85224
255,12.75,-2.125328,-0.2514228,0.00651578,0,0,0,0,0,2.125195,8.295062,0.2514228,0,8.659396,-2.125328,5975.292,85038
260,13.0,-2.166795,-0.2565339,0.006648237,0,0,0,0,0,2.166662,8.456915,0.2565339,0,8.836045,-2.166795,6086.001,85106.1
265,13.25,-2.208528,-0.2604735,0.006750335,0,0,0,0,0,2.208395,8.619807,0.2604735,0,9.014144,-2.208528,6168.47,84780.1
270,13.5,-2.250528,-0.2658772,0.006890376,0,0,0,0,0,2.250395,8.783742,0.2658772,0,9.193704,-2.250528,6285.143,84923.8
275,13.75,-2.291728,-0.2693218,0.006979645,0,0,0,0,0,2.291595,8.944553,0.2693218,0,9.370156,-2.291728,6355.347,84477.5
280,14.0,-2.333328,-0.2754432,0.007138285,0,0,0,0,0,2.333194,9.106926,0.2754433,0,9.548638,-2.333328,6488.207,84857.2
285,14.25,-2.375328,-0.2781703,0.007208959,0,0,0,0,0,2.375194,9.27086,0.2781703,0,9.72916,-2.375328,6540.626,84181.9
290,14.5,-2.416661,-0.2842364,0.007366165,0,0,0,0,0,2.416528,9.432192,0.2842364,0,9.907136,-2.416661,6671.374,84546.4
295,14.75,-2.458527,-0.2871848,0.007442575,0,0,0,0,0,2.458394,9.595606,0.2871848,0,10.08773,-2.458527,6728.415,83968.7
300,15.0,-2.500394,-0.2923908,0.007577491,0,0,0,0,0,2.500261,9.759019,0.2923908,0,10.26865,-2.500394,6838.002,84059.3
305,15.25,-2.541994,-0.2955872,0.007660329,0,0,0,0,0,2.541861,9.921391,0.2955872,0,10.44875,-2.541994,6900.318,83587.5
310,15.5,-2.58346,-0.2999315,0.007772913,0,0,0,0,0,2.583327,10.08324,0.2999315,0,10.62859,-2.58346,6989.151,83454.5
315,15.75,-2.625327,-0.3037668,0.007872308,0,0,0,0,0,2.625194,10.24666,0.3037668,0,10.81049,-2.625327,7065.659,83173.7
320,16.0,-2.666794,-0.3075021,0.00796911,0,0,0,0,0,2.66666,10.40851,0.3075021,0,10.99099,-2.666794,7139.645,82887.3
325,16.25,-2.708527,-0.3115204,0.008073246,0,0,0,0,0,2.708394,10.5714,0.3115204,0,11.17297,-2.708527,7219.791,82676.5
330,16.5,-2.750393,-0.3149638,0.008162485,0,0,0,0,0,2.75026,10.73482,0.3149638,0,11.35587,-2.750393,7286.257,82317.9
335,16.75,-2.791726,-0.3188214,0.008262456,0,0,0,0,0,2.791593,10.89615,0.3188214,0,11.53676,-2.791726,7362.167,82092.3
340,17.0,-2.833593,-0.3221766,0.00834941,0,0,0,0,0,2.83346,11.05956,0.3221766,0,11.72033,-2.833593,7426.002,81730.5
345,17.25,-2.875193,-0.3256358,0.008439057,0,0,0,0,0,2.87506,11.22193,0.3256358,0,11.90306,-2.875193,7492.031,81412.8
350,17.5,-2.916793,-0.3291749,0.008530776,0,0,0,0,0,2.916659,11.38431,0.3291749,0,12.08612,-2.916793,7559.606,81123.8
355,17.75,-2.95866,-0.3325916,0.00861932,0,0,0,0,0,2.958526,11.54772,0.3325916,0,12.2707,-2.95866,7623.985,80805.9
360,18.0,-2.999993,-0.3355437,0.008695826,0,0,0,0,0,2.999859,11.70905,0.3355437,0,12.45326,-2.999993,7677.627,80399.9
365,18.25,-3.041859,-0.3389301,0.008783586,0,0,0,0,0,3.041726,11.87247,0.3389301,0,12.63852,-3.041859,7740.758,80093.5
370,18.5,-3.083726,-0.3420409,0.008864206,0,0,0,0,0,3.083592,12.03588,0.342041,0,12.82412,-3.083726,7797.321,79731.2
375,18.75,-3.125059,-0.3449855,0.008940517,0,0,0,0,0,3.124926,12.19721,0.3449855,0,13.00769,-3.125059,7850.024,79353.9
380,19.0,-3.167192,-0.34793,0.009016825,0,0,0,0,0,3.167059,12.36167,0.34793,0,13.19517,-3.167192,7902.195,78966.5
385,19.25,-3.208525,-0.3507519,0.009089957,0,0,0,0,0,3.208392,12.523,0.3507519,0,13.37943,-3.208525,7951.622,78581.4
390,19.5,-3.250125,-0.3531716,0.009152665,0,0,0,0,0,3.249992,12.68537,0.3531716,0,13.56522,-3.250125,7991.616,78110.7
395,19.75,-3.292125,-0.3562535,0.009232535,0,0,0,0,0,3.291992,12.84931,0.3562535,0,13.75314,-3.292125,8046.218,77787.1
400,20.0,-3.333325,-0.3584979,0.009290699,0,0,0,0,0,3.333192,13.01012,0.3584979,0,13.93784,-3.333325,8081.968,77309.6
405,20.25,-3.374925,-0.3611717,0.009359992,0,0,0,0,0,3.374792,13.17249,0.3611717,0,14.12467,-3.374925,8127.048,76926.2
410,20.5,-3.416925,-0.3636679,0.009424682,0,0,0,0,0,3.416791,13.33642,0.3636679,0,14.31365,-3.416925,8167.766,76505.7
415,20.75,-3.458658,-0.366056,0.009486571,0,0,0,0,0,3.458525,13.49932,0.366056,0,14.50179,-3.458658,8205.949,76078.8
420,21.0,-3.500258,-0.3683202,0.00954525,0,0,0,0,0,3.500125,13.66169,0.3683202,0,14.68968,-3.500258,8241.207,75639.6
425,21.25,-3.541858,-0.3707432,0.009608041,0,0,0,0,0,3.541724,13.82406,0.3707432,0,14.87792,-3.541858,8279.82,75242.9
430,21.5,-3.583725,-0.3728027,0.009661417,0,0,0,0,0,3.583591,13.98748,0.3728027,0,15.06773,-3.583725,8310.028,74777
435,21.75,-3.625058,-0.3749778,0.009717785,0,0,0,0,0,3.624924,14.14881,0.3749778,0,15.25547,-3.625058,8342.834,74355.6
440,22.0,-3.666924,-0.3771098,0.009773038,0,0,0,0,0,3.666791,14.31222,0.3771098,0,15.446,-3.666924,8374.3,73924.6
445,22.25,-3.708658,-0.3790075,0.009822217,0,0,0,0,0,3.708524,14.47511,0.3790075,0,15.63628,-3.708658,8400.44,73460.5
450,22.5,-3.750257,-0.3808655,0.009870369,0,0,0,0,0,3.750124,14.63749,0.3808655,0,15.82631,-3.750257,8425.595,73001.8
455,22.75,-3.791991,-0.3823145,0.00990792,0,0,0,0,0,3.791857,14.80038,0.3823145,0,16.01732,-3.791991,8441.51,72473
460,23.0,-3.833457,-0.3842638,0.009958439,0,0,0,0,0,3.833324,14.96223,0.3842638,0,16.20747,-3.833457,8468.434,72054.5
465,23.25,-3.875191,-0.3857952,0.009998124,0,0,0,0,0,3.875057,15.12513,0.3857951,0,16.39921,-3.875191,8485.895,71562.6
470,23.5,-3.916657,-0.3873804,0.01003921,0,0,0,0,0,3.916524,15.28698,0.3873804,0,16.59009,-3.916657,8504.514,71095.8
475,23.75,-3.958391,-0.3889239,0.01007921,0,0,0,0,0,3.958257,15.44987,0.3889239,0,16.78256,-3.958391,8521.983,70626.5
480,24.0,-4.000257,-0.3902098,0.01011253,0,0,0,0,0,4.000124,15.61328,0.3902098,0,16.97602,-4.000257,8533.633,70118.4
485,24.25,-4.04159,-0.3911746,0.01013754,0,0,0,0,0,4.041457,15.77462,0.3911746,0,17.16739,-4.04159,8538.378,69572.9
490,24.5,-4.08359,-0.3927674,0.01017881,0,0,0,0,0,4.083457,15.93855,0.3927674,0,17.36221,-4.08359,8556.459,69137.7
495,24.75,-4.125457,-0.3943143,0.0102189,0,0,0,0,0,4.125324,16.10196,0.3943143,0,17.5568,-4.125457,8573.459,68705.5
500,25.0,-4.166657,-0.3955265,0.01025032,0,0,0,0,0,4.166523,16.26278,0.3955266,0,17.74866,-4.166657,8583.333,68235.3
505,25.25,-4.20879,-0.397081,0.0102906,0,0,0,0,0,4.208656,16.42723,0.397081,0,17.94524,-4.20879,8600.143,67817.7
510,25.5,-4.250256,-0.3984053,0.01032492,0,0,0,0,0,4.250123,16.58908,0.3984053,0,18.1391,-4.250256,8612.113,67380
515,25.75,-4.291856,-0.3994696,0.01035251,0,0,0,0,0,4.291723,16.75146,0.3994696,0,18.33395,-4.291856,8618.311,66905.1
520,26.0,-4.333456,-0.400851,0.01038831,0,0,0,0,0,4.333323,16.91383,0.400851,0,18.52919,-4.333456,8631.246,66492
525,26.25,-4.375323,-0.4017876,0.01041258,0,0,0,0,0,4.375189,17.07724,0.4017876,0,18.72606,-4.375323,8634.397,66009.6
530,26.5,-4.416923,-0.402873,0.01044071,0,0,0,0,0,4.41679,17.23961,0.402873,0,18.92207,-4.416923,8640.77,65564.5
535,26.75,-4.458522,-0.4037339,0.01046302,0,0,0,0,0,4.458389,17.40199,0.4037338,0,19.11846,-4.458522,8642.244,65091.5
540,27.0,-4.500389,-0.404423,0.01048088,0,0,0,0,0,4.500256,17.5654,0.404423,0,19.3165,-4.500389,8639.868,64596
545,27.25,-4.541722,-0.4053116,0.0105039,0,0,0,0,0,4.541589,17.72673,0.4053116,0,19.5124,-4.541722,8641.905,64148.8
550,27.5,-4.583456,-0.4059954,0.01052163,0,0,0,0,0,4.583322,17.88963,0.4059954,0,19.71058,-4.583456,8639.347,63671.9
555,27.75,-4.625322,-0.4069392,0.01054609,0,0,0,0,0,4.625189,18.05304,0.4069392,0,19.9098,-4.625322,8642.197,63242.3
560,28.0,-4.666789,-0.4079746,0.01057292,0,0,0,0,0,4.666656,18.21489,0.4079746,0,20.1075,-4.666789,8647.073,62839.8
565,28.25,-4.708655,-0.4086338,0.01059,0,0,0,0,0,4.708522,18.37831,0.4086338,0,20.30751,-4.708655,8643.739,62381.7
570,28.5,-4.750122,-0.4093448,0.01060843,0,0,0,0,0,4.749988,18.54016,0.4093448,0,20.506,-4.750122,8641.608,61944.7
575,28.75,-4.791989,-0.4100628,0.01062704,0,0,0,0,0,4.791855,18.70357,0.4100628,0,20.70681,-4.791989,8639.4,61511.2
580,29.0,-4.833588,-0.4105355,0.01063929,0,0,0,0,0,4.833455,18.86594,0.4105355,0,20.90674,-4.833588,8632.085,61052.1
585,29.25,-4.875188,-0.4109595,0.01065027,0,0,0,0,0,4.875054,19.02832,0.4109595,0,21.10707,-4.875188,8623.705,60593.6
590,29.5,-4.917188,-0.4113097,0.01065935,0,0,0,0,0,4.917055,19.19225,0.4113097,0,21.30973,-4.917188,8613.58,60127.2
595,29.75,-4.958388,-0.4117645,0.01067114,0,0,0,0,0,4.958254,19.35306,0.4117646,0,21.50893,-4.958388,8605.945,59693.6
600,30.0,-4.999855,-0.4121845,0.01068202,0,0,0,0,0,4.999722,19.51492,0.4121845,0,21.70983,-4.999855,8597.433,59258.8
605,30.25,-5.042121,-0.4126676,0.01069454,0,0,0,0,0,5.041987,19.67989,0.4126676,0,21.91502,-5.042121,8589.868,58831
610,30.5,-5.083321,-0.4131694,0.01070754,0,0,0,0,0,5.083188,19.8407,0.4131694,0,22.11543,-5.083321,8583.092,58425.1
615,30.75,-5.125187,-0.4134361,0.01071446,0,0,0,0,0,5.125054,20.00411,0.4134361,0,22.3195,-5.125187,8571.124,57985.2
620,31.0,-5.167054,-0.4140649,0.01073075,0,0,0,0,0,5.166921,20.16753,0.4140649,0,22.52399,-5.167054,8566.625,57602.8
625,31.25,-5.208654,-0.4141524,0.01073302,0,0,0,0,0,5.208521,20.3299,0.4141524,0,22.72758,-5.208654,8551.007,57154.8
630,31.5,-5.250254,-0.4144708,0.01074127,0,0,0,0,0,5.250121,20.49227,0.4144708,0,22.9316,-5.250254,8540.141,56745.6
635,31.75,-5.291987,-0.4145062,0.01074219,0,0,0,0,0,5.291853,20.65517,0.4145062,0,23.13668,-5.291987,8523.372,56302.9
640,32.0,-5.33372,-0.4144858,0.01074166,0,0,0,0,0,5.333587,20.81806,0.4144858,0,23.34219,-5.33372,8505.455,55859.6
645,32.25,-5.375054,-0.4141801,0.01073374,0,0,0,0,0,5.37492,20.97939,0.4141801,0,23.54615,-5.375054,8481.865,55389.1
650,32.5,-5.41692,-0.4141956,0.01073414,0,0,0,0,0,5.416787,21.14281,0.4141956,0,23.75316,-5.41692,8464.64,54963.1
655,32.75,-5.45852,-0.414324,0.01073747,0,0,0,0,0,5.458387,21.30518,0.414324,0,23.95929,-5.45852,8449.831,54561.1
660,33.0,-5.50012,-0.4143688,0.01073863,0,0,0,0,0,5.499987,21.46755,0.4143688,0,24.16583,-5.50012,8433.308,54154.3
665,33.25,-5.54212,-0.4142852,0.01073646,0,0,0,0,0,5.541986,21.63148,0.4142852,0,24.37479,-5.54212,8414.006,53733
670,33.5,-5.583453,-0.4128645,0.01069964,0,0,0,0,0,5.583319,21.79282,0.4128645,0,24.58087,-5.583453,8367.889,53152.3
675,33.75,-5.625186,-0.4138035,0.01072398,0,0,0,0,0,5.625053,21.95571,0.4138035,0,24.78937,-5.625186,8369.452,52878
680,34.0,-5.66652,-0.4126745,0.01069472,0,0,0,0,0,5.666386,22.11704,0.4126745,0,24.9963,-5.66652,8329.363,52349
685,34.25,-5.708786,-0.4144249,0.01074008,0,0,0,0,0,5.708652,22.28202,0.414425,0,25.20835,-5.708786,8346.976,52181.9
690,34.5,-5.750253,-0.413468,0.01071528,0,0,0,0,0,5.75012,22.44387,0.413468,0,25.41683,-5.750253,8310.358,51685.9
695,34.75,-5.791719,-0.4144467,0.01074065,0,0,0,0,0,5.791585,22.60572,0.4144467,0,25.62573,-5.791719,8312.646,51437.3
700,35.0,-5.833853,-0.414412,0.01073975,0,0,0,0,0,5.833719,22.77018,0.414412,0,25.83845,-5.833853,8294.288,51061.6
705,35.25,-5.875319,-0.4161203,0.01078402,0,0,0,0,0,5.875186,22.93203,0.4161203,0,26.04824,-5.875319,8311.025,50910.2
710,35.5,-5.916785,-0.4146779,0.01074664,0,0,0,0,0,5.916652,23.09388,0.4146779,0,26.25847,-5.916785,8264.823,50378.1
715,35.75,-5.958785,-0.4169888,0.01080653,0,0,0,0,0,5.958652,23.25781,0.4169888,0,26.47186,-5.958785,8293.165,50301.8
720,36.0,-6.000119,-0.4167402,0.01080009,0,0,0,0,0,5.999986,23.41915,0.4167402,0,26.68231,-6.000119,8270.797,49925.5
725,36.25,-6.041719,-0.4175621,0.01082139,0,0,0,0,0,6.041585,23.58152,0.4175621,0,26.89456,-6.041719,8269.538,49679.5
730,36.5,-6.083585,-0.4179376,0.01083112,0,0,0,0,0,6.083452,23.74493,0.4179376,0,27.10863,-6.083585,8259.275,49382
735,36.75,-6.125185,-0.418529,0.01084644,0,0,0,0,0,6.125052,23.90731,0.418529,0,27.32179,-6.125185,8253.351,49116
740,37.0,-6.166785,-0.4187695,0.01085267,0,0,0,0,0,6.166652,24.06968,0.4187695,0,27.53541,-6.166785,8240.471,48812.7
745,37.25,-6.208518,-0.4186926,0.01085068,0,0,0,0,0,6.208385,24.23257,0.4186926,0,27.75017,-6.208518,8221.282,48475.7
750,37.5,-6.250385,-0.4189687,0.01085784,0,0,0,0,0,6.250251,24.39598,0.4189686,0,27.96608,-6.250385,8208.96,48182.7
755,37.75,-6.291718,-0.4191621,0.01086285,0,0,0,0,0,6.291584,24.55732,0.4191621,0,28.1797,-6.291718,8195.224,47888.3
760,38.0,-6.333584,-0.419615,0.01087459,0,0,0,0,0,6.333451,24.72073,0.419615,0,28.39654,-6.333584,8186.309,47623.1
765,38.25,-6.375451,-0.4201107,0.01088743,0,0,0,0,0,6.375318,24.88414,0.4201107,0,28.61385,-6.375451,8178.189,47366.3
770,38.5,-6.416784,-0.4206801,0.01090219,0,0,0,0,0,6.41665,25.04548,0.4206801,0,28.82886,-6.416784,8171.684,47125
775,38.75,-6.458651,-0.421202,0.01091571,0,0,0,0,0,6.458517,25.20889,0.4212019,0,29.04711,-6.458651,8163.983,46877.5
780,39.0,-6.500117,-0.4219067,0.01093398,0,0,0,0,0,6.499984,25.37074,0.4219067,0,29.26376,-6.500117,8159.946,46656.4
785,39.25,-6.541984,-0.4223144,0.01094454,0,0,0,0,0,6.541851,25.53416,0.4223144,0,29.48296,-6.541984,8149.946,46402.6
790,39.5,-6.583317,-0.4228393,0.01095815,0,0,0,0,0,6.583184,25.69549,0.4228393,0,29.69985,-6.583317,8142.397,46168.6
795,39.75,-6.625051,-0.4234047,0.0109728,0,0,0,0,0,6.624918,25.85838,0.4234047,0,29.91932,-6.625051,8135.41,45939.1
800,40.0,-6.667051,-0.4238504,0.01098435,0,0,0,0,0,6.666917,26.02232,0.4238504,0,30.14067,-6.667051,8125.967,45697.8
805,40.25,-6.708384,-0.4241444,0.01099197,0,0,0,0,0,6.708251,26.18365,0.4241444,0,30.35899,-6.708384,8113.871,45447.7
810,40.5,-6.750383,-0.4246408,0.01100483,0,0,0,0,0,6.75025,26.34758,0.4246408,0,30.58132,-6.750383,8105.327,45217.8
815,40.75,-6.791983,-0.4251322,0.01101757,0,0,0,0,0,6.79185,26.50995,0.4251322,0,30.80202,-6.791983,8096.815,44992.8
820,41.0,-6.83345,-0.4255216,0.01102766,0,0,0,0,0,6.833317,26.67181,0.4255216,0,31.0225,-6.83345,8086.383,44760.7
825,41.25,-6.875317,-0.4263281,0.01104856,0,0,0,0,0,6.875184,26.83522,0.4263281,0,31.2456,-6.875317,8083.655,44572.5
830,41.5,-6.916916,-0.426976,0.01106535,0,0,0,0,0,6.916783,26.99759,0.426976,0,31.46778,-6.916916,8077.973,44371.8
835,41.75,-6.958649,-0.4278214,0.01108726,0,0,0,0,0,6.958516,27.16048,0.4278214,0,31.69116,-6.958649,8075.906,44193
840,42.0,-7.000116,-0.428511,0.01110513,0,0,0,0,0,6.999983,27.32234,0.428511,0,31.91361,-7.000116,8070.95,44002
845,42.25,-7.041983,-0.429032,0.01111863,0,0,0,0,0,7.04185,27.48575,0.429032,0,32.13871,-7.041983,8062.593,43793.6
850,42.5,-7.083316,-0.4294229,0.01112876,0,0,0,0,0,7.083183,27.64708,0.4294229,0,32.36144,-7.083316,8051.985,43577.7
855,42.75,-7.125049,-0.4300007,0.01114374,0,0,0,0,0,7.124916,27.80998,0.4300007,0,32.58683,-7.125049,8044.668,43380.7
860,43.0,-7.167049,-0.4305699,0.01115849,0,0,0,0,0,7.166916,27.97391,0.4305699,0,32.81418,-7.167049,8037.023,43183.6
865,43.25,-7.208382,-0.4314014,0.01118004,0,0,0,0,0,7.208249,28.13524,0.4314014,0,33.03842,-7.208382,8034.508,43018.9
870,43.5,-7.250116,-0.4317795,0.01118984,0,0,0,0,0,7.249982,28.29814,0.4317795,0,33.26534,-7.250116,8023.322,42808.7
875,43.75,-7.291982,-0.4328293,0.01121704,0,0,0,0,0,7.291849,28.46155,0.4328293,0,33.49351,-7.291982,8024.498,42666.4
880,44.0,-7.333449,-0.4331031,0.01122414,0,0,0,0,0,7.333315,28.6234,0.4331031,0,33.72001,-7.333449,8011.409,42452
885,44.25,-7.375182,-0.4336109,0.0112373,0,0,0,0,0,7.375049,28.78629,0.4336109,0,33.94849,-7.375182,8002.496,42261.3
890,44.5,-7.416915,-0.4335169,0.01123486,0,0,0,0,0,7.416782,28.94919,0.4335169,0,34.17749,-7.416915,7982.461,42014.4
895,44.75,-7.458782,-0.433962,0.0112464,0,0,0,0,0,7.458649,29.1126,0.433962,0,34.40775,-7.458782,7972.279,41821.4
900,45.0,-7.500248,-0.4335158,0.01123483,0,0,0,0,0,7.500115,29.27445,0.4335158,0,34.63634,-7.500248,7945.898,41547.4
905,45.25,-7.541848,-0.4342488,0.01125383,0,0,0,0,0,7.541715,29.43683,0.4342488,0,34.86618,-7.541848,7941.061,41388.1
910,45.5,-7.583715,-0.4345157,0.01126075,0,0,0,0,0,7.583582,29.60024,0.4345157,0,35.09804,-7.583715,7927.538,41184.9
915,45.75,-7.625048,-0.4347951,0.01126799,0,0,0,0,0,7.624915,29.76157,0.4347951,0,35.32746,-7.625048,7914.458,40988
920,46.0,-7.666781,-0.4350365,0.01127425,0,0,0,0,0,7.666648,29.92447,0.4350365,0,35.55965,-7.666781,7900.488,40787.5
925,46.25,-7.708781,-0.4358499,0.01129532,0,0,0,0,0,7.708648,30.0884,0.4358498,0,35.79386,-7.708781,7896.741,40641.1
930,46.5,-7.749981,-0.4360743,0.01130114,0,0,0,0,0,7.749847,30.24921,0.4360743,0,36.02414,-7.749981,7882.633,40445.9
935,46.75,-7.791847,-0.4367354,0.01131827,0,0,0,0,0,7.791714,30.41262,0.4367354,0,36.2587,-7.791847,7876.089,40289.6
940,47.0,-7.833581,-0.4378158,0.01134627,0,0,0,0,0,7.833448,30.57552,0.4378158,0,36.49306,-7.833581,7877.091,40174.1
945,47.25,-7.875181,-0.4388467,0.01137299,0,0,0,0,0,7.875048,30.73789,0.4388467,0,36.72722,-7.875181,7877.171,40055.9
950,47.5,-7.916781,-0.4401559,0.01140692,0,0,0,0,0,7.916648,30.90026,0.4401559,0,36.96193,-7.916781,7882.149,39964.3
955,47.75,-7.958648,-0.441553,0.01144313,0,0,0,0,0,7.958515,31.06368,0.4415531,0,37.1987,-7.958648,7888.469,39880.3
960,48.0,-8.000247,-0.4433706,0.01149023,0,0,0,0,0,8.000114,31.22605,0.4433706,0,37.43451,-8.000247,7902.283,39836.2
965,48.25,-8.041847,-0.4440497,0.01150783,0,0,0,0,0,8.041715,31.38842,0.4440497,0,37.67089,-8.041847,7895.702,39690.8
970,48.5,-8.083714,-0.4455344,0.0115463,0,0,0,0,0,8.083581,31.55184,0.4455344,0,37.90935,-8.083714,7903.233,39617.3
975,48.75,-8.12518,-0.4467072,0.0115767,0,0,0,0,0,8.125047,31.71369,0.4467072,0,38.14609,-8.12518,7905.3,39518.9
980,49.0,-8.166647,-0.4479264,0.01160829,0,0,0,0,0,8.166513,31.87554,0.4479263,0,38.38339,-8.166647,7908.087,39425.5
985,49.25,-8.208646,-0.4491482,0.01163996,0,0,0,0,0,8.208513,32.03947,0.4491481,0,38.62432,-8.208646,7910.576,39330.8
990,49.5,-8.250114,-0.4506405,0.01167863,0,0,0,0,0,8.24998,32.20133,0.4506405,0,38.86276,-8.250114,7917.958,39263.1
995,49.75,-8.29198,-0.4520556,0.01171531,0,0,0,0,0,8.291847,32.36474,0.4520556,0,39.10408,-8.29198,7923.678,39187.5
1000,50.0,-8.333313,-0.4537401,0.01175896,0,0,0,0,0,8.33318,32.52607,0.4537401,0,39.34289,-8.333313,7934.232,39138.5
1005,50.25,-8.375313,-0.4548424,0.01178753,0,0,0,0,0,8.37518,32.69001,0.4548424,0,39.58615,-8.375313,7934.183,39036.8
1010,50.5,-8.416913,-0.4568797,0.01184033,0,0,0,0,0,8.41678,32.85238,0.4568797,0,39.82767,-8.416913,7950.497,39017.8
1015,50.75,-8.45838,-0.4581089,0.01187218,0,0,0,0,0,8.458246,33.01423,0.4581089,0,40.069,-8.45838,7952.67,38931
1020,51.0,-8.500513,-0.4599777,0.01192061,0,0,0,0,0,8.500379,33.17868,0.4599777,0,40.3148,-8.500513,7965.509,38896.1
1025,51.25,-8.541846,-0.461069,0.01194889,0,0,0,0,0,8.541712,33.34002,0.461069,0,40.55653,-8.541846,7965.131,38799.7
1030,51.5,-8.583313,-0.4627246,0.0119918,0,0,0,0,0,8.583179,33.50187,0.4627246,0,40.79964,-8.583313,7974.321,38750.9
1035,51.75,-8.625446,-0.4640278,0.01202557,0,0,0,0,0,8.625313,33.66632,0.4640278,0,41.04725,-8.625446,7977.004,38670.2
1040,52.0,-8.666912,-0.4659661,0.0120758,0,0,0,0,0,8.666778,33.82817,0.4659661,0,41.29154,-8.666912,7990.78,38645.9
1045,52.25,-8.708379,-0.4670057,0.01210275,0,0,0,0,0,8.708246,33.99003,0.4670057,0,41.53644,-8.708379,7989.018,38547.7
1050,52.5,-8.750112,-0.4686109,0.01214435,0,0,0,0,0,8.749978,34.15292,0.4686109,0,41.78351,-8.750112,7996.698,38495.7
1055,52.75,-8.791845,-0.4696382,0.01217097,0,0,0,0,0,8.791712,34.31581,0.4696382,0,42.0312,-8.791845,7994.402,38397
1060,53.0,-8.833311,-0.4696991,0.01217255,0,0,0,0,0,8.833178,34.47766,0.4696991,0,42.27791,-8.833311,7975.737,38221.7
1065,53.25,-8.875045,-0.4719768,0.01223158,0,0,0,0,0,8.874912,34.64056,0.4719768,0,42.52683,-8.875045,7994.489,38226.4
1070,53.5,-8.917178,-0.471869,0.01222878,0,0,0,0,0,8.917045,34.80502,0.471869,0,42.77876,-8.917178,7972.552,38037.1
1075,53.75,-8.958512,-0.4750608,0.0123115,0,0,0,0,0,8.958379,34.96635,0.4750608,0,43.02654,-8.958512,8006.618,38117.7
1080,54.0,-9.000378,-0.4751927,0.01231492,0,0,0,0,0,9.000244,35.12976,0.4751927,0,43.27812,-9.000378,7988.717,37951
1085,54.25,-9.041978,-0.4794064,0.01242412,0,0,0,0,0,9.041845,35.29213,0.4794064,0,43.52874,-9.041978,8039.382,38111.3
1090,54.5,-9.083444,-0.480306,0.01244743,0,0,0,0,0,9.08331,35.45398,0.4803061,0,43.77918,-9.083444,8034.323,38008.5
1095,54.75,-9.125311,-0.4830848,0.01251945,0,0,0,0,0,9.125176,35.6174,0.4830848,0,44.03267,-9.125311,8060.346,38053
1100,55.0,-9.166645,-0.485355,0.01257828,0,0,0,0,0,9.166511,35.77873,0.485355,0,44.28357,-9.166645,8077.931,38059.5
1105,55.25,-9.208778,-0.4872515,0.01262743,0,0,0,0,0,9.208645,35.94319,0.4872515,0,44.53998,-9.208778,8088.729,38033.4
1110,55.5,-9.250111,-0.4891343,0.01267622,0,0,0,0,0,9.249978,36.10452,0.4891343,0,44.79215,-9.250111,8099.534,38009.7
1115,55.75,-9.291711,-0.492667,0.01276777,0,0,0,0,0,9.291577,36.26689,0.492667,0,45.0466,-9.291711,8137.3,38112.8
1120,56.0,-9.333711,-0.4943728,0.01281198,0,0,0,0,0,9.333578,36.43083,0.4943728,0,45.30415,-9.333711,8144.472,38072.7
1125,56.25,-9.375044,-0.4968168,0.01287532,0,0,0,0,0,9.374911,36.59216,0.4968168,0,45.55826,-9.375044,8163.962,38092.2
1130,56.5,-9.417044,-0.4993563,0.01294113,0,0,0,0,0,9.416911,36.75609,0.4993563,0,45.81714,-9.417044,8184.478,38116.2
1135,56.75,-9.458643,-0.5021866,0.01301448,0,0,0,0,0,9.458509,36.91846,0.5021866,0,46.0742,-9.458643,8209.735,38163.6
1140,57.0,-9.499977,-0.5039926,0.01306129,0,0,0,0,0,9.499844,37.0798,0.5039926,0,46.33028,-9.499977,8218.188,38134.2
1145,57.25,-9.54211,-0.5066724,0.01313074,0,0,0,0,0,9.541977,37.24425,0.5066724,0,46.592,-9.54211,8240.291,38167.7
1150,57.5,-9.583577,-0.5088039,0.01318598,0,0,0,0,0,9.583444,37.4061,0.508804,0,46.85024,-9.583577,8253.616,38162.4
1155,57.75,-9.62531,-0.5105174,0.01323038,0,0,0,0,0,9.625176,37.569,0.5105174,0,47.11082,-9.62531,8259.859,38124.9
1160,58.0,-9.666909,-0.5125743,0.01328368,0,0,0,0,0,9.666776,37.73137,0.5125743,0,47.37123,-9.666909,8271.57,38113.8
1165,58.25,-9.708643,-0.5145216,0.01333415,0,0,0,0,0,9.708509,37.89426,0.5145215,0,47.63318,-9.708643,8281.272,38094.2
1170,58.5,-9.75011,-0.5167801,0.01339268,0,0,0,0,0,9.749977,38.05611,0.5167801,0,47.89413,-9.75011,8295.948,38098.6
1175,58.75,-9.791709,-0.5182381,0.01343047,0,0,0,0,0,9.791576,38.21849,0.5182381,0,48.1566,-9.791709,8297.545,38043.8
1180,59.0,-9.833709,-0.5205239,0.0134897,0,0,0,0,0,9.833576,38.38242,0.5205238,0,48.4223,-9.833709,8312.029,38048.4
1185,59.25,-9.875042,-0.5223922,0.01353812,0,0,0,0,0,9.874909,38.54375,0.5223922,0,48.68447,-9.875042,8320.022,38025.1
1190,59.5,-9.916776,-0.5244522,0.01359151,0,0,0,0,0,9.916643,38.70665,0.5244522,0,48.94988,-9.916776,8330.691,38014.4
1195,59.75,-9.958643,-0.5266155,0.01364757,0,0,0,0,0,9.958509,38.87006,0.5266155,0,49.21684,-9.958643,8342.753,38010.8
1200,60.0,-10.00011,-0.5285827,0.01369855,0,0,0,0,0,9.999975,39.03191,0.5285828,0,49.48196,-10.00011,8351.747,37994.6
1205,60.25,-10.04184,-0.5306015,0.01375087,0,0,0,0,0,10.04171,39.19481,0.5306014,0,49.7495,-10.04184,8361.244,37981.1
1210,60.5,-10.08344,-0.5327389,0.01380626,0,0,0,0,0,10.08331,39.35718,0.5327389,0,50.01689,-10.08344,8372.508,37976.8
1215,60.75,-10.12531,-0.5347914,0.01385946,0,0,0,0,0,10.12517,39.52059,0.5347915,0,50.28671,-10.12531,8382.118,37965.5
1220,61.0,-10.16704,-0.5368641,0.01391317,0,0,0,0,0,10.16691,39.68348,0.5368641,0,50.55642,-10.16704,8391.94,37956.2
1225,61.25,-10.20851,-0.5385127,0.01395589,0,0,0,0,0,10.20838,39.84534,0.5385127,0,50.82513,-10.20851,8395.121,37918.1
1230,61.5,-10.25037,-0.5405113,0.01400769,0,0,0,0,0,10.25024,40.00875,0.5405113,0,51.09714,-10.25037,8403.388,37903.4
1235,61.75,-10.29158,-0.5423335,0.01405491,0,0,0,0,0,10.29144,40.16956,0.5423335,0,51.36557,-10.29158,8409.116,37878.9
1240,62.0,-10.33331,-0.5434528,0.01408392,0,0,0,0,0,10.33317,40.33245,0.5434527,0,51.63819,-10.33331,8403.529,37803.8
1245,62.25,-10.37544,-0.5448425,0.01411994,0,0,0,0,0,10.37531,40.49691,0.5448425,0,51.91419,-10.37544,8401.799,37746.5
1250,62.5,-10.41664,-0.5459656,0.01414904,0,0,0,0,0,10.41651,40.65772,0.5459656,0,52.18481,-10.41664,8396.364,37674.7
1255,62.75,-10.45851,-0.5469812,0.01417536,0,0,0,0,0,10.45837,40.82113,0.5469812,0,52.46057,-10.45851,8388.819,37593.8
1260,63.0,-10.50037,-0.5486469,0.01421853,0,0,0,0,0,10.50024,40.98455,0.5486469,0,52.73709,-10.50037,8391.129,37557.9
1265,63.25,-10.54184,-0.5490177,0.01422814,0,0,0,0,0,10.54171,41.1464,0.5490177,0,53.01172,-10.54184,8373.772,37435.4
1270,63.5,-10.58344,-0.5508157,0.01427474,0,0,0,0,0,10.58331,41.30877,0.5508158,0,53.28799,-10.58344,8378.018,37410.4
1275,63.75,-10.62504,-0.551156,0.01428355,0,0,0,0,0,10.62491,41.47115,0.551156,0,53.56503,-10.62504,8360.0,37286.9
1280,64.0,-10.66704,-0.5532514,0.01433786,0,0,0,0,0,10.66691,41.63508,0.5532514,0,53.84552,-10.66704,8368.279,37281.3
1285,64.25,-10.70851,-0.554224,0.01436306,0,0,0,0,0,10.70837,41.79693,0.554224,0,54.12321,-10.70851,8359.743,37202.3
1290,64.5,-10.75037,-0.5563693,0.01441866,0,0,0,0,0,10.75024,41.96035,0.5563693,0,54.40437,-10.75037,8368.541,37200.8
1295,64.75,-10.79197,-0.5568621,0.01443143,0,0,0,0,0,10.79184,42.12272,0.5568621,0,54.68453,-10.79197,8352.52,37090.2
1300,65.0,-10.83357,-0.5594313,0.01449801,0,0,0,0,0,10.83344,42.28509,0.5594313,0,54.96547,-10.83357,8367.515,37118.3
1305,65.25,-10.87517,-0.5600397,0.01451378,0,0,0,0,0,10.87504,42.44746,0.5600397,0,55.2472,-10.87517,8353.049,37016.5
1310,65.5,-10.91691,-0.5621928,0.01456958,0,0,0,0,0,10.91677,42.61036,0.5621928,0,55.53063,-10.91691,8361.43,37016.8
1315,65.75,-10.95837,-0.5624783,0.01457698,0,0,0,0,0,10.95824,42.77221,0.5624783,0,55.81306,-10.95837,8342.083,36895.4
1320,66.0,-11.00024,-0.5645832,0.01463153,0,0,0,0,0,11.00011,42.93562,0.5645832,0,56.09902,-11.00024,8349.39,36892.5
1325,66.25,-11.04197,-0.5656762,0.01465986,0,0,0,0,0,11.04184,43.09851,0.5656762,0,56.38488,-11.04197,8341.675,36824.2
1330,66.5,-11.08357,-0.567032,0.01469499,0,0,0,0,0,11.08344,43.26089,0.567032,0,56.67064,-11.08357,8337.808,36774
1335,66.75,-11.12504,-0.5685607,0.01473461,0,0,0,0,0,11.12491,43.42274,0.5685607,0,56.95631,-11.12504,8336.438,36735.6
1340,67.0,-11.16717,-0.569979,0.01477136,0,0,0,0,0,11.16704,43.5872,0.569979,0,57.24741,-11.16717,8332.94,36688.3
1345,67.25,-11.20851,-0.5711797,0.01480248,0,0,0,0,0,11.20837,43.74853,0.5711797,0,57.5338,-11.20851,8326.613,36630.1
1350,67.5,-11.25011,-0.5730144,0.01485003,0,0,0,0,0,11.24997,43.9109,0.5730144,0,57.82287,-11.25011,8329.248,36611.8
1355,67.75,-11.29211,-0.5745593,0.01489007,0,0,0,0,0,11.29197,44.07483,0.5745593,0,58.11557,-11.29211,8327.294,36574
1360,68.0,-11.33344,-0.5762808,0.01493468,0,0,0,0,0,11.33331,44.23617,0.5762808,0,58.40447,-11.33344,8328.149,36549.8
1365,68.25,-11.37504,-0.5784176,0.01499006,0,0,0,0,0,11.3749,44.39854,0.5784175,0,58.69606,-11.37504,8334.69,36551.2
1370,68.5,-11.41691,-0.579029,0.0150059,0,0,0,0,0,11.41677,44.56195,0.579029,0,58.9904,-11.41691,8318.979,36455.6
1375,68.75,-11.45851,-0.58014,0.01503469,0,0,0,0,0,11.45837,44.72433,0.58014,0,59.28373,-11.45851,8310.528,36393
1380,69.0,-11.50011,-0.5826166,0.01509888,0,0,0,0,0,11.49997,44.8867,0.5826166,0,59.5779,-11.50011,8321.489,36416.1
1385,69.25,-11.54197,-0.5837868,0.0151292,0,0,0,0,0,11.54184,45.05011,0.5837868,0,59.87485,-11.54197,8313.48,36356.9
1390,69.5,-11.58371,-0.5851421,0.01516432,0,0,0,0,0,11.58357,45.21301,0.5851421,0,60.17174,-11.58371,8308.077,36310
1395,69.75,-11.62504,-0.5867804,0.01520678,0,0,0,0,0,11.62491,45.37434,0.5867804,0,60.46664,-11.62504,8306.807,36282.2
1400,70.0,-11.66704,-0.5884375,0.01524973,0,0,0,0,0,11.6669,45.53827,0.5884375,0,60.76719,-11.66704,8305.266,36253.7
1405,70.25,-11.70864,-0.5899575,0.01528912,0,0,0,0,0,11.7085,45.70064,0.5899575,0,61.06578,-11.70864,8301.894,36218.2
1410,70.5,-11.7501,-0.5917323,0.01533511,0,0,0,0,0,11.74997,45.8625,0.5917323,0,61.3643,-11.7501,8302.048,36198.9
1415,70.75,-11.79197,-0.5935455,0.01538211,0,0,0,0,0,11.79184,46.02591,0.5935456,0,61.66661,-11.79197,8302.352,36180.9
1420,71.0,-11.83344,-0.5950915,0.01542217,0,0,0,0,0,11.8333,46.18776,0.5950915,0,61.96692,-11.83344,8299.015,36148.1
1425,71.25,-11.87517,-0.5967591,0.01546539,0,0,0,0,0,11.87504,46.35065,0.5967591,0,62.27009,-11.87517,8297.079,36122
1430,71.5,-11.91664,-0.5980059,0.0154977,0,0,0,0,0,11.9165,46.5125,0.598006,0,62.57223,-11.91664,8289.332,36071.5
1435,71.75,-11.95837,-0.6001636,0.01555362,0,0,0,0,0,11.95824,46.6754,0.6001636,0,62.87724,-11.95837,8293.904,36075.3
1440,72.0,-12.00037,-0.6016268,0.01559154,0,0,0,0,0,12.00024,46.83933,0.6016268,0,63.18514,-12.00037,8288.566,36036.7
1445,72.25,-12.04157,-0.6031966,0.01563222,0,0,0,0,0,12.04144,47.00014,0.6031966,0,63.4881,-12.04157,8285.054,36007.1
1450,72.5,-12.0837,-0.604987,0.01567862,0,0,0,0,0,12.08357,47.1646,0.604987,0,63.79888,-12.0837,8283.861,35988
1455,72.75,-12.1253,-0.6068373,0.01572657,0,0,0,0,0,12.12517,47.32697,0.6068373,0,64.10667,-12.1253,8283.66,35974.2
1460,73.0,-12.16677,-0.6084748,0.01576901,0,0,0,0,0,12.16664,47.48882,0.6084748,0,64.41441,-12.16677,8280.491,35948.4
1465,73.25,-12.20864,-0.6103524,0.01581767,0,0,0,0,0,12.2085,47.65224,0.6103524,0,64.7261,-12.20864,8280.194,35935.7
1470,73.5,-12.25024,-0.6119458,0.01585896,0,0,0,0,0,12.2501,47.81461,0.6119458,0,65.03677,-12.25024,8276.059,35907.1
1475,73.75,-12.29184,-0.6133487,0.01589532,0,0,0,0,0,12.2917,47.97698,0.6133487,0,65.34839,-12.29184,8269.224,35867.6
1480,74.0,-12.33344,-0.6149458,0.01593671,0,0,0,0,0,12.3333,48.13936,0.6149458,0,65.661,-12.33344,8264.878,35839.7
1485,74.25,-12.3753,-0.6162987,0.01597177,0,0,0,0,0,12.37517,48.30277,0.6162987,0,65.9766,-12.3753,8256.962,35797.1
1490,74.5,-12.41677,-0.6174938,0.01600274,0,0,0,0,0,12.41664,48.46462,0.6174938,0,66.29017,-12.41677,8247.073,35746.7
1495,74.75,-12.45837,-0.6185453,0.01602999,0,0,0,0,0,12.45824,48.627,0.6185453,0,66.60574,-12.45837,8235.088,35688
1500,75.0,-12.50024,-0.6197143,0.01606029,0,0,0,0,0,12.5001,48.79041,0.6197143,0,66.92433,-12.50024,8224.407,35635.7
1505,75.25,-12.5417,-0.6206027,0.01608331,0,0,0,0,0,12.54157,48.95226,0.6206027,0,67.2409,-12.5417,8210.166,35568.8
1510,75.5,-12.58344,-0.6216615,0.01611075,0,0,0,0,0,12.5833,49.11516,0.6216615,0,67.56051,-12.58344,8197.929,35511.3
1515,75.75,-12.6253,-0.6229693,0.01614464,0,0,0,0,0,12.62517,49.27857,0.6229693,0,67.88216,-12.6253,8188.793,35468
1520,76.0,-12.6669,-0.6245652,0.016186,0,0,0,0,0,12.66677,49.44094,0.6245652,0,68.20281,-12.6669,8183.489,35442.1
1525,76.25,-12.7085,-0.6257562,0.01621687,0,0,0,0,0,12.70837,49.60331,0.6257562,0,68.52447,-12.7085,8172.763,35393.4
1530,76.5,-12.7501,-0.6273092,0.01625711,0,0,0,0,0,12.74997,49.76569,0.6273091,0,68.84719,-12.7501,8166.648,35365.5
1535,76.75,-12.7921,-0.6290398,0.01630196,0,0,0,0,0,12.79197,49.92962,0.6290398,0,69.17405,-12.7921,8162.455,35346.6
1540,77.0,-12.8337,-0.6303572,0.0163361,0,0,0,0,0,12.83357,50.092,0.6303572,0,69.49888,-12.8337,8153.023,35305.8
1545,77.25,-12.87517,-0.6319159,0.0163765,0,0,0,0,0,12.87504,50.25385,0.6319159,0,69.8237,-12.87517,8146.678,35279.1
1550,77.5,-12.91717,-0.6334846,0.01641715,0,0,0,0,0,12.91703,50.41778,0.6334845,0,70.15378,-12.91717,8139.989,35251.7
1555,77.75,-12.95824,-0.6349168,0.01645427,0,0,0,0,0,12.9581,50.57807,0.6349168,0,70.4776,-12.95824,8132.016,35219.5
1560,78.0,-13.0001,-0.6367088,0.01650071,0,0,0,0,0,12.99997,50.74149,0.6367087,0,70.8088,-13.0001,8128.004,35205.1
1565,78.25,-13.04197,-0.6384765,0.01654652,0,0,0,0,0,13.04183,50.9049,0.6384765,0,71.14109,-13.04197,8123.53,35189.5
1570,78.5,-13.0833,-0.6401693,0.01659039,0,0,0,0,0,13.08317,51.06623,0.6401693,0,71.47024,-13.0833,8118.303,35171.4
1575,78.75,-13.12517,-0.6418582,0.01663416,0,0,0,0,0,13.12504,51.22964,0.6418582,0,71.80475,-13.12517,8112.538,35151.7
1580,79.0,-13.16703,-0.6438655,0.01668618,0,0,0,0,0,13.1669,51.39306,0.6438655,0,72.14038,-13.16703,8110.642,35149.5
1585,79.25,-13.20863,-0.6454131,0.01672629,0,0,0,0,0,13.2085,51.55543,0.6454131,0,72.47498,-13.20863,8102.978,35123
1590,79.5,-13.2501,-0.6475039,0.01678047,0,0,0,0,0,13.24997,51.71729,0.6475039,0,72.80965,-13.2501,8102.067,35126.5
1595,79.75,-13.2921,-0.6494013,0.01682964,0,0,0,0,0,13.29197,51.88122,0.6494013,0,73.14976,-13.2921,8098.219,35118.1
1600,80.0,-13.3337,-0.6512245,0.01687689,0,0,0,0,0,13.33357,52.04359,0.6512245,0,73.48776,-13.3337,8093.553,35106.8
1605,80.25,-13.37503,-0.6527924,0.01691752,0,0,0,0,0,13.3749,52.20492,0.6527924,0,73.82474,-13.37503,8085.745,35082.6
1610,80.50001,-13.41703,-0.6545935,0.0169642,0,0,0,0,0,13.4169,52.36885,0.6545935,0,74.16833,-13.41703,8080.244,35069.3
1615,80.75001,-13.4585,-0.6564491,0.01701229,0,0,0,0,0,13.45837,52.53071,0.6564491,0,74.50872,-13.4585,8075.615,35060.3
1620,81.00001,-13.5001,-0.6582548,0.01705909,0,0,0,0,0,13.49997,52.69308,0.6582549,0,74.85135,-13.5001,8070.13,35048.4
1625,81.25001,-13.54183,-0.6603965,0.01711459,0,0,0,0,0,13.5417,52.85597,0.6603965,0,75.19629,-13.54183,8068.507,35054.1
1630,81.50001,-13.58343,-0.6626808,0.01717379,0,0,0,0,0,13.5833,53.01835,0.6626807,0,75.5413,-13.58343,8068.53,35067.6
1635,81.75001,-13.62517,-0.664891,0.01723107,0,0,0,0,0,13.62503,53.18124,0.6648909,0,75.88861,-13.62517,8067.373,35076.8
1640,82.00001,-13.66677,-0.6671574,0.0172898,0,0,0,0,0,13.66663,53.34361,0.6671575,0,76.23603,-13.66677,8066.798,35089.3
1645,82.25001,-13.70863,-0.6697282,0.01735643,0,0,0,0,0,13.7085,53.50703,0.6697282,0,76.5869,-13.70863,8069.519,35116.9
1650,82.50001,-13.75037,-0.6721355,0.01741881,0,0,0,0,0,13.75023,53.66992,0.6721355,0,76.93788,-13.75037,8070.15,35136.1
1655,82.75001,-13.7917,-0.6742373,0.01747328,0,0,0,0,0,13.79157,53.83125,0.6742373,0,77.28671,-13.7917,8067.197,35140.4
1660,83.00001,-13.83383,-0.676858,0.0175412,0,0,0,0,0,13.8337,53.9957,0.6768579,0,77.64354,-13.83383,8069.705,35169.5
1665,83.25001,-13.8753,-0.678825,0.01759218,0,0,0,0,0,13.87517,54.15755,0.678825,0,77.99598,-13.8753,8064.683,35166.3
1670,83.50001,-13.91677,-0.6808968,0.01764587,0,0,0,0,0,13.91663,54.31941,0.6808968,0,78.34967,-13.91677,8060.737,35168.6
1675,83.75001,-13.95877,-0.6834044,0.01771086,0,0,0,0,0,13.95863,54.48335,0.6834044,0,78.70919,-13.95877,8061.389,35191.9
1680,84.00001,-14.0001,-0.6851131,0.01775514,0,0,0,0,0,13.99997,54.64468,0.6851131,0,79.06426,-14.0001,8052.9,35175.7
1685,84.25001,-14.0417,-0.6874569,0.01781588,0,0,0,0,0,14.04157,54.80705,0.6874569,0,79.42291,-14.0417,8051.521,35191.4
1690,84.50001,-14.08357,-0.6898534,0.01787798,0,0,0,0,0,14.08343,54.97046,0.6898534,0,79.78515,-14.08357,8050.374,35209.2
1695,84.75001,-14.12517,-0.692246,0.01793999,0,0,0,0,0,14.12503,55.13284,0.692246,0,80.1464,-14.12517,8049.165,35227.2
1700,85.00001,-14.16677,-0.6943926,0.01799562,0,0,0,0,0,14.16663,55.29521,0.6943926,0,80.50895,-14.16677,8044.904,35232.7
1705,85.25001,-14.2085,-0.6965839,0.01805241,0,0,0,0,0,14.20837,55.4581,0.6965839,0,80.87399,-14.2085,8040.886,35240
1710,85.50001,-14.25037,-0.6986415,0.01810573,0,0,0,0,0,14.25023,55.62151,0.6986415,0,81.24154,-14.25037,8035.05,35240.3
1715,85.75001,-14.2917,-0.7006278,0.01815721,0,0,0,0,0,14.29156,55.78284,0.7006278,0,81.60574,-14.2917,8028.602,35238.3
1720,86.00001,-14.3337,-0.7028899,0.01821583,0,0,0,0,0,14.33356,55.94678,0.7028899,0,81.97717,-14.3337,8024.662,35248.5
1725,86.25001,-14.37543,-0.7050867,0.01827277,0,0,0,0,0,14.3753,56.10967,0.7050867,0,82.34762,-14.37543,8019.977,35256
1730,86.50001,-14.4169,-0.7068496,0.01831845,0,0,0,0,0,14.41676,56.27152,0.7068496,0,82.71707,-14.4169,8010.38,35242.5
1735,86.75001,-14.45863,-0.7086091,0.01836405,0,0,0,0,0,14.4585,56.43442,0.7086091,0,83.09028,-14.45863,8000.405,35228.2
1740,87.00001,-14.49996,-0.7102583,0.01840679,0,0,0,0,0,14.49983,56.59575,0.7102583,0,83.46128,-14.49996,7989.329,35209.6
1745,87.25001,-14.54196,-0.7117617,0.01844575,0,0,0,0,0,14.54183,56.75968,0.7117618,0,83.83969,-14.54196,7976.002,35182.2
1750,87.50001,-14.5833,-0.7130597,0.01847939,0,0,0,0,0,14.58317,56.92102,0.7130597,0,84.2135,-14.5833,7960.733,35146.4
1755,87.75001,-14.62503,-0.7151282,0.018533,0,0,0,0,0,14.6249,57.08391,0.7151282,0,84.59233,-14.62503,7953.638,35147.8
1760,88.00001,-14.66703,-0.7168823,0.01857845,0,0,0,0,0,14.6669,57.24784,0.7168823,0,84.97505,-14.66703,7942.69,35133.1
1765,88.25001,-14.70823,-0.718044,0.01860856,0,0,0,0,0,14.7081,57.40865,0.718044,0,85.35191,-14.70823,7925.637,35091.5
1770,88.50001,-14.75036,-0.7199397,0.01865769,0,0,0,0,0,14.75023,57.57311,0.7199397,0,85.73878,-14.75036,7915.879,35083.6
1775,88.75001,-14.7921,-0.7213333,0.01869381,0,0,0,0,0,14.79196,57.736,0.7213333,0,86.12346,-14.7921,7900.75,35052.4
1780,89.00001,-14.83343,-0.7227393,0.01873024,0,0,0,0,0,14.8333,57.89734,0.7227393,0,86.50592,-14.83343,7885.931,35022.8
1785,89.25001,-14.87543,-0.7243682,0.01877246,0,0,0,0,0,14.8753,58.06127,0.7243682,0,86.89604,-14.87543,7872.931,35002.7
1790,89.50001,-14.91703,-0.7258801,0.01881164,0,0,0,0,0,14.9169,58.22364,0.72588,0,87.28396,-14.91703,7858.817,34977.9
1795,89.75001,-14.9585,-0.7269743,0.01884,0,0,0,0,0,14.95836,58.38549,0.7269743,0,87.67214,-14.9585,7840.171,34933.5
1800,90.00001,-15.00023,-0.728599,0.0188821,0,0,0,0,0,15.0001,58.54839,0.728599,0,88.06434,-15.00023,7826.935,34914.2
1803,90.12,-15.0205,-0.7293216,0.01890083,0,0,0,0,0,15.02036,58.62749,0.7293216,0,88.25535,-15.0205,7819.747,34901.7