File: GFBaking/em/g7_1.csv
,Time sec,Extension mm,Load kgf,Compressive stress MPa,Cycle Count ,Total Cycle Count ,Repetitions Count ,Marked Data ,PIP Count ,Compressive extension mm,Compressive strain %,Compressive load kgf,Displacement (Strain 1) mm,True strain %,Corrected Position mm,True stress Pa,Elastic Modulus
0,0.0,-0.000133333,-0.01092473,0.0002851963,0,0,0,0,0,-2.762533e-20,-1.084202e-19,0.01092473,0,0.0,-0.000133333,285.1963,-2.84257e+23
5,0.25,-0.03479992,-0.01494229,0.000390077,0,0,0,0,0,0.03466658,0.1360548,0.01494229,0,0.1361474,-0.03479992,389.5463,309823
10,0.5,-0.08173313,-0.01948498,0.0005086664,0,0,0,0,0,0.0815998,0.3202521,0.01948498,0,0.320766,-0.08173313,507.0375,171640
15,0.7500001,-0.1247997,-0.0240189,0.0006270272,0,0,0,0,0,0.1246664,0.489274,0.0240189,0,0.4904749,-0.1247997,623.9594,138488
20,1.0,-0.1665329,-0.02697379,0.0007041663,0,0,0,0,0,0.1663996,0.6530631,0.02697379,0,0.6552048,-0.1665329,699.5676,116519
25,1.25,-0.2085328,-0.03092228,0.0008072437,0,0,0,0,0,0.2083995,0.8178987,0.03092228,0,0.8212618,-0.2085328,800.6413,106655
30,1.5,-0.250266,-0.03432086,0.0008959658,0,0,0,0,0,0.2501327,0.9816877,0.03432086,0,0.9865381,-0.250266,887.1702,98626.8
35,1.75,-0.2917326,-0.03886451,0.00101458,0,0,0,0,0,0.2915993,1.14443,0.03886451,0,1.151029,-0.2917326,1002.969,95801.9
40,2.0,-0.3335992,-0.04271814,0.001115181,0,0,0,0,0,0.3334658,1.308743,0.04271814,0,1.317382,-0.3335992,1100.587,92080.6
45,2.25,-0.3750657,-0.04648439,0.001213502,0,0,0,0,0,0.3749324,1.471485,0.04648438,0,1.482419,-0.3750657,1195.645,89117.2
50,2.5,-0.416799,-0.05071933,0.001324057,0,0,0,0,0,0.4166656,1.635274,0.05071933,0,1.648792,-0.416799,1302.405,87497
55,2.75,-0.4585322,-0.05537067,0.001445483,0,0,0,0,0,0.4583988,1.799063,0.05537067,0,1.815443,-0.4585322,1419.478,86824.8
60,3.0,-0.4999988,-0.05946733,0.001552429,0,0,0,0,0,0.4998655,1.961806,0.05946733,0,1.981305,-0.4999988,1521.973,85513.1
65,3.25,-0.5419987,-0.06332433,0.001653118,0,0,0,0,0,0.5418653,2.126641,0.06332432,0,2.14958,-0.5419987,1617.962,84001.4
70,3.5,-0.5834653,-0.0689194,0.001799181,0,0,0,0,0,0.583332,2.289384,0.06891941,0,2.315997,-0.5834653,1757.99,84924.5
75,3.75,-0.6251985,-0.07318583,0.001910558,0,0,0,0,0,0.6250651,2.453173,0.07318583,0,2.483764,-0.6251985,1863.689,84160.6
80,4.0,-0.666665,-0.07822457,0.002042097,0,0,0,0,0,0.6665317,2.615915,0.07822457,0,2.650739,-0.666665,1988.678,84358.7
85,4.25,-0.7085316,-0.08370789,0.002185242,0,0,0,0,0,0.7083982,2.780227,0.08370788,0,2.819607,-0.7085316,2124.488,84936.9
90,4.5,-0.7502649,-0.08804045,0.002298346,0,0,0,0,0,0.7501315,2.944017,0.08804045,0,2.988223,-0.7502649,2230.683,84363
95,4.75,-0.7919981,-0.09315912,0.002431972,0,0,0,0,0,0.7918647,3.107805,0.09315912,0,3.157122,-0.7919981,2356.391,84563.3
100,5.0,-0.8334646,-0.0996908,0.002602485,0,0,0,0,0,0.8333313,3.270548,0.0996908,0,3.325226,-0.8334646,2517.37,85989.4
105,5.25,-0.8753312,-0.1037573,0.002708644,0,0,0,0,0,0.8751979,3.43486,0.1037573,0,3.495238,-0.8753312,2615.606,85215.7
110,5.5,-0.9167978,-0.1084719,0.00283172,0,0,0,0,0,0.9166645,3.597603,0.1084718,0,3.663912,-0.9167978,2729.846,85057.7
115,5.75,-0.9583976,-0.1142438,0.002982399,0,0,0,0,0,0.9582643,3.760869,0.1142438,0,3.833414,-0.9583976,2870.235,85694.8
120,6.0,-1.000131,-0.1186185,0.003096605,0,0,0,0,0,0.9999976,3.924658,0.1186185,0,4.003749,-1.000131,2975.074,85263
125,6.25,-1.041864,-0.1245545,0.003251566,0,0,0,0,0,1.041731,4.088447,0.1245545,0,4.174374,-1.041864,3118.628,85943.1
130,6.5,-1.083331,-0.1280892,0.003343842,0,0,0,0,0,1.083197,4.251189,0.1280892,0,4.344198,-1.083331,3201.689,84998.7
135,6.75,-1.125197,-0.133836,0.003493866,0,0,0,0,0,1.125064,4.415502,0.133836,0,4.515953,-1.125197,3339.594,85507.3
140,7.0,-1.166931,-0.1389537,0.003627465,0,0,0,0,0,1.166797,4.579291,0.1389537,0,4.687456,-1.166931,3461.353,85601.6
145,7.25,-1.208397,-0.145531,0.00379917,0,0,0,0,0,1.208264,4.742033,0.145531,0,4.858154,-1.208397,3619.013,86576.7
150,7.5,-1.250264,-0.1487532,0.003883288,0,0,0,0,0,1.25013,4.906346,0.1487532,0,5.030795,-1.250264,3692.761,85530
155,7.75,-1.291864,-0.1566089,0.004088366,0,0,0,0,0,1.29173,5.069611,0.1566089,0,5.202631,-1.291864,3881.101,87146.9
160,8.0,-1.333463,-0.1606412,0.004193631,0,0,0,0,0,1.33333,5.232877,0.1606412,0,5.374764,-1.333463,3974.183,86601.7
165,8.25,-1.375197,-0.1671903,0.004364599,0,0,0,0,0,1.375063,5.396666,0.1671903,0,5.547747,-1.375197,4129.056,87396.9
170,8.5,-1.416663,-0.1723201,0.004498516,0,0,0,0,0,1.41653,5.559408,0.1723201,0,5.719921,-1.416663,4248.425,87441.5
175,8.75,-1.458663,-0.1782221,0.004652589,0,0,0,0,0,1.45853,5.724244,0.1782221,0,5.894612,-1.458663,4386.264,87832.1
180,9.0,-1.499863,-0.1841859,0.004808277,0,0,0,0,0,1.49973,5.88594,0.1841858,0,6.066274,-1.499863,4525.265,88277.6
185,9.25,-1.54173,-0.1894807,0.004946503,0,0,0,0,0,1.541596,6.050252,0.1894807,0,6.241015,-1.54173,4647.227,88349
190,9.5,-1.58373,-0.196027,0.005117398,0,0,0,0,0,1.583596,6.215088,0.196027,0,6.41662,-1.58373,4799.347,88977.2
195,9.75,-1.624929,-0.2009725,0.005246502,0,0,0,0,0,1.624796,6.376784,0.2009725,0,6.58918,-1.624929,4911.944,88908.9
200,10.0,-1.666929,-0.2070173,0.005404306,0,0,0,0,0,1.666796,6.541619,0.2070173,0,6.765398,-1.666929,5050.777,89275.3
205,10.25,-1.708662,-0.2125242,0.005548065,0,0,0,0,0,1.708529,6.705409,0.2125242,0,6.940805,-1.708662,5176.045,89411.5
210,10.5,-1.750129,-0.2182316,0.00569706,0,0,0,0,0,1.749996,6.868151,0.2182316,0,7.115397,-1.750129,5305.777,89637.1
215,10.75,-1.791862,-0.2237188,0.005840307,0,0,0,0,0,1.791729,7.03194,0.2237188,0,7.291419,-1.791862,5429.62,89750.6
220,11.0,-1.833596,-0.2291633,0.00598244,0,0,0,0,0,1.833462,7.195729,0.2291633,0,7.467753,-1.833596,5551.96,89842.2
225,11.25,-1.875195,-0.2346498,0.006125668,0,0,0,0,0,1.875062,7.358995,0.2346498,0,7.643832,-1.875195,5674.88,89952.2
230,11.5,-1.916795,-0.2402855,0.00627279,0,0,0,0,0,1.916662,7.522261,0.2402855,0,7.820223,-1.916795,5800.935,90113.4
235,11.75,-1.958529,-0.2454871,0.006408581,0,0,0,0,0,1.958395,7.686049,0.2454871,0,7.997491,-1.958529,5916.014,90102.3
240,12.0,-1.999995,-0.2508874,0.00654956,0,0,0,0,0,1.999862,7.848793,0.2508874,0,8.17394,-1.999995,6035.499,90175
245,12.25,-2.041862,-0.2562354,0.006689172,0,0,0,0,0,2.041728,8.013104,0.2562354,0,8.352405,-2.041862,6153.162,90208.7
250,12.5,-2.083595,-0.2615438,0.00682775,0,0,0,0,0,2.083462,8.176893,0.2615438,0,8.530621,-2.083595,6269.452,90233.2
255,12.75,-2.125062,-0.266747,0.006963583,0,0,0,0,0,2.124928,8.339637,0.266747,0,8.708015,-2.125062,6382.846,90232.4
260,13.0,-2.166795,-0.2719906,0.007100472,0,0,0,0,0,2.166662,8.503426,0.2719907,0,8.886865,-2.166795,6496.688,90234
265,13.25,-2.208528,-0.2771762,0.007235844,0,0,0,0,0,2.208395,8.667213,0.2771762,0,9.066036,-2.208528,6608.698,90216.6
270,13.5,-2.250128,-0.2824857,0.007374451,0,0,0,0,0,2.249995,8.830481,0.2824857,0,9.244957,-2.250128,6723.251,90244.8
275,13.75,-2.291861,-0.2872682,0.007499301,0,0,0,0,0,2.291728,8.994269,0.2872682,0,9.424771,-2.291861,6824.794,90101.5
280,14.0,-2.333461,-0.2923715,0.007632526,0,0,0,0,0,2.333328,9.157536,0.2923715,0,9.604334,-2.333461,6933.575,90067.2
285,14.25,-2.375328,-0.2972756,0.00776055,0,0,0,0,0,2.375194,9.321847,0.2972756,0,9.785373,-2.375328,7037.123,89963.7
290,14.5,-2.416927,-0.3019996,0.007883872,0,0,0,0,0,2.416794,9.485112,0.3019996,0,9.965584,-2.416927,7136.078,89820.2
295,14.75,-2.458394,-0.306577,0.008003367,0,0,0,0,0,2.458261,9.647856,0.3065769,0,10.14554,-2.458394,7231.214,89643.5
300,15.0,-2.500394,-0.31156,0.008133452,0,0,0,0,0,2.500261,9.812691,0.31156,0,10.32815,-2.500394,7335.342,89570.2
305,15.25,-2.541727,-0.3160526,0.008250733,0,0,0,0,0,2.541594,9.97491,0.3160526,0,10.50818,-2.541727,7427.73,89384.1
310,15.5,-2.583327,-0.3207195,0.008372568,0,0,0,0,0,2.583194,10.13818,0.3207195,0,10.6897,-2.583327,7523.742,89243.3
315,15.75,-2.625327,-0.3252791,0.008491598,0,0,0,0,0,2.625193,10.30301,0.3252791,0,10.8733,-2.625327,7616.708,89064
320,16.0,-2.66666,-0.3296042,0.008604507,0,0,0,0,0,2.666527,10.46523,0.3296042,0,11.05432,-2.66666,7704.025,88849.3
325,16.25,-2.708527,-0.3341053,0.008722009,0,0,0,0,0,2.708393,10.62954,0.3341053,0,11.238,-2.708527,7794.9,88670.5
330,16.5,-2.750127,-0.3385893,0.008839068,0,0,0,0,0,2.749993,10.79281,0.3385893,0,11.42085,-2.750127,7885.085,88501.2
335,16.75,-2.791993,-0.3427672,0.008948135,0,0,0,0,0,2.79186,10.95712,0.3427672,0,11.60522,-2.791993,7967.677,88249.6
340,17.0,-2.833326,-0.3470606,0.009060217,0,0,0,0,0,2.833193,11.11934,0.3470606,0,11.78756,-2.833326,8052.78,88051.4
345,17.25,-2.875326,-0.3512998,0.009170883,0,0,0,0,0,2.875193,11.28418,0.3512998,0,11.97319,-2.875326,8136.024,87825
350,17.5,-2.916926,-0.3554507,0.009279244,0,0,0,0,0,2.916793,11.44744,0.3554507,0,12.15739,-2.916926,8217.008,87595.4
355,17.75,-2.958393,-0.3593522,0.009381094,0,0,0,0,0,2.958259,11.61018,0.3593522,0,12.34134,-2.958393,8291.932,87315.5
360,18.0,-3.000393,-0.3632225,0.009482132,0,0,0,0,0,3.000259,11.77502,0.3632225,0,12.528,-3.000393,8365.609,87020.4
365,18.25,-3.041859,-0.3671914,0.009585743,0,0,0,0,0,3.041726,11.93776,0.3671914,0,12.71264,-3.041859,8441.419,86772
370,18.5,-3.083326,-0.3707732,0.009679247,0,0,0,0,0,3.083193,12.1005,0.3707732,0,12.89761,-3.083326,8508.009,86440
375,18.75,-3.125192,-0.374484,0.009776119,0,0,0,0,0,3.125059,12.26482,0.374484,0,13.08472,-3.125192,8577.096,86135.5
380,19.0,-3.166659,-0.3780942,0.009870366,0,0,0,0,0,3.166526,12.42756,0.3780942,0,13.27038,-3.166659,8643.72,85827.1
385,19.25,-3.208659,-0.381507,0.00995946,0,0,0,0,0,3.208526,12.5924,0.381507,0,13.45879,-3.208659,8705.325,85468.1
390,19.5,-3.249992,-0.3849665,0.01004977,0,0,0,0,0,3.249859,12.75461,0.3849665,0,13.64455,-3.249992,8767.961,85146.3
395,19.75,-3.291859,-0.3883979,0.01013935,0,0,0,0,0,3.291725,12.91893,0.3883979,0,13.83306,-3.291859,8829.455,84812.6
400,20.0,-3.333458,-0.3916214,0.0102235,0,0,0,0,0,3.333325,13.08219,0.3916214,0,14.02073,-3.333458,8886.044,84449.3
405,20.25,-3.374925,-0.3948009,0.0103065,0,0,0,0,0,3.374792,13.24494,0.3948009,0,14.20814,-3.374925,8941.413,84088.9
410,20.5,-3.417058,-0.397429,0.01037511,0,0,0,0,0,3.416925,13.41029,0.397429,0,14.39893,-3.417058,8983.779,83604.8
415,20.75,-3.458525,-0.4009728,0.01046763,0,0,0,0,0,3.458391,13.57304,0.4009728,0,14.58705,-3.458525,9046.851,83339
420,21.0,-3.499991,-0.4035148,0.01053399,0,0,0,0,0,3.499858,13.73578,0.4035148,0,14.77553,-3.499991,9087.061,82873.6
425,21.25,-3.541991,-0.4056969,0.01059095,0,0,0,0,0,3.541858,13.90061,0.4056969,0,14.96679,-3.541991,9118.743,82333.7
430,21.5,-3.583325,-0.4085378,0.01066511,0,0,0,0,0,3.583191,14.06283,0.4085378,0,15.15538,-3.583325,9165.297,81953.9
435,21.75,-3.624924,-0.4107479,0.01072281,0,0,0,0,0,3.624791,14.2261,0.4107479,0,15.34554,-3.624924,9197.372,81451.6
440,22.0,-3.666791,-0.4137633,0.01080153,0,0,0,0,0,3.666658,14.39041,0.4137633,0,15.53729,-3.666791,9247.144,81112.7
445,22.25,-3.708524,-0.4164289,0.01087111,0,0,0,0,0,3.708391,14.5542,0.4164289,0,15.72879,-3.708524,9288.91,80716.6
450,22.5,-3.749991,-0.4177287,0.01090505,0,0,0,0,0,3.749857,14.71694,0.4177287,0,15.91944,-3.749991,9300.157,80073.1
455,22.75,-3.791858,-0.4201809,0.01096906,0,0,0,0,0,3.791724,14.88126,0.4201809,0,16.11229,-3.791858,9336.728,79653.9
460,23.0,-3.833724,-0.4221633,0.01102082,0,0,0,0,0,3.833591,15.04557,0.4221633,0,16.30552,-3.833724,9362.672,79155.7
465,23.25,-3.874924,-0.4244583,0.01108073,0,0,0,0,0,3.874791,15.20726,0.4244583,0,16.49603,-3.874924,9395.651,78739.8
470,23.5,-3.916924,-0.4262055,0.01112634,0,0,0,0,0,3.916791,15.3721,0.4262055,0,16.69062,-3.916924,9415.986,78216.1
475,23.75,-3.958657,-0.4282555,0.01117985,0,0,0,0,0,3.958523,15.53589,0.4282554,0,16.88434,-3.958657,9442.965,77763.7
480,24.0,-3.99999,-0.4305205,0.01123898,0,0,0,0,0,3.999857,15.69811,0.4305205,0,17.07659,-3.99999,9474.676,77367.2
485,24.25,-4.041857,-0.4309509,0.01125022,0,0,0,0,0,4.041724,15.86242,0.4309509,0,17.27169,-4.041857,9465.662,76642.3
490,24.5,-4.083457,-0.4333751,0.01131351,0,0,0,0,0,4.083323,16.02569,0.4333751,0,17.46592,-4.083457,9500.44,76288.2
495,24.75,-4.12519,-0.4336447,0.01132054,0,0,0,0,0,4.125056,16.18947,0.4336447,0,17.66116,-4.12519,9487.808,75563.4
500,25.0,-4.166657,-0.4355606,0.01137056,0,0,0,0,0,4.166523,16.35222,0.4355606,0,17.85553,-4.166657,9511.22,75141.9
505,25.25,-4.20839,-0.4362212,0.0113878,0,0,0,0,0,4.208257,16.51601,0.4362212,0,18.05153,-4.20839,9506.993,74509.5
510,25.5,-4.250256,-0.4382432,0.01144059,0,0,0,0,0,4.250123,16.68032,0.4382432,0,18.24854,-4.250256,9532.262,74117.5
515,25.75,-4.29159,-0.4385041,0.0114474,0,0,0,0,0,4.291457,16.84254,0.4385042,0,18.44343,-4.29159,9519.369,73447.4
520,26.0,-4.33359,-0.4398894,0.01148356,0,0,0,0,0,4.333456,17.00737,0.4398894,0,18.64184,-4.33359,9530.512,72965.3
525,26.25,-4.375323,-0.4406354,0.01150304,0,0,0,0,0,4.37519,17.17116,0.4406354,0,18.83939,-4.375323,9527.835,72391.9
530,26.5,-4.416789,-0.4410121,0.01151287,0,0,0,0,0,4.416656,17.33391,0.4410121,0,19.03607,-4.416789,9517.242,71773.5
535,26.75,-4.458656,-0.4413209,0.01152094,0,0,0,0,0,4.458523,17.49822,0.4413209,0,19.23503,-4.458656,9504.977,71149.3
540,27.0,-4.500256,-0.4415192,0.01152611,0,0,0,0,0,4.500123,17.66148,0.4415193,0,19.43312,-4.500256,9490.43,70523.3
545,27.25,-4.541856,-0.4416685,0.01153001,0,0,0,0,0,4.541722,17.82475,0.4416685,0,19.6316,-4.541856,9474.814,69901
550,27.5,-4.583456,-0.4420129,0.011539,0,0,0,0,0,4.583323,17.98802,0.4420129,0,19.83048,-4.583456,9463.362,69320.5
555,27.75,-4.625189,-0.4420945,0.01154113,0,0,0,0,0,4.625055,18.1518,0.4420945,0,20.03039,-4.625189,9446.206,68707.7
560,28.0,-4.666655,-0.4423736,0.01154842,0,0,0,0,0,4.666522,18.31455,0.4423736,0,20.22943,-4.666655,9433.376,68140.2
565,28.25,-4.708255,-0.4425588,0.01155325,0,0,0,0,0,4.708122,18.47781,0.4425588,0,20.4295,-4.708255,9418.462,67566.4
570,28.5,-4.750389,-0.4428171,0.01155999,0,0,0,0,0,4.750255,18.64317,0.4428171,0,20.63254,-4.750389,9404.845,67006.2
575,28.75,-4.791722,-0.4425406,0.01155278,0,0,0,0,0,4.791588,18.80539,0.4425406,0,20.83213,-4.791722,9380.232,66386.7
580,29.0,-4.833455,-0.4424612,0.0115507,0,0,0,0,0,4.833322,18.96918,0.4424612,0,21.03406,-4.833455,9359.629,65801.6
585,29.25,-4.875188,-0.4424203,0.01154964,0,0,0,0,0,4.875055,19.13297,0.4424203,0,21.2364,-4.875188,9339.848,65232.3
590,29.5,-4.916788,-0.4420924,0.01154108,0,0,0,0,0,4.916655,19.29623,0.4420924,0,21.4385,-4.916788,9314.083,64632.4
595,29.75,-4.958655,-0.4417708,0.01153268,0,0,0,0,0,4.958521,19.46055,0.4417709,0,21.6423,-4.958655,9288.359,64040.1
600,30.0,-4.999988,-0.441086,0.0115148,0,0,0,0,0,4.999854,19.62276,0.441086,0,21.84392,-4.999988,9255.281,63412.3
605,30.25,-5.041988,-0.440502,0.01149956,0,0,0,0,0,5.041854,19.7876,0.440502,0,22.04921,-5.041988,9224.072,62800.8
610,30.5,-5.083454,-0.4401733,0.01149098,0,0,0,0,0,5.083321,19.95034,0.4401733,0,22.2523,-5.083454,9198.487,62242
615,30.75,-5.125054,-0.4399151,0.01148424,0,0,0,0,0,5.124921,20.11361,0.4399151,0,22.45647,-5.125054,9174.341,61700.5
620,31.0,-5.167188,-0.4399426,0.01148495,0,0,0,0,0,5.167054,20.27897,0.4399426,0,22.66367,-5.167188,9155.923,61201.3
625,31.25,-5.208388,-0.4398731,0.01148314,0,0,0,0,0,5.208254,20.44066,0.4398731,0,22.86671,-5.208388,9135.909,60707.5
630,31.5,-5.250121,-0.439876,0.01148322,0,0,0,0,0,5.249987,20.60445,0.439876,0,23.07279,-5.250121,9117.162,60225.4
635,31.75,-5.291987,-0.4397217,0.01147919,0,0,0,0,0,5.291854,20.76877,0.4397217,0,23.27996,-5.291987,9095.102,59727.9
640,32.0,-5.33332,-0.4398016,0.01148127,0,0,0,0,0,5.333187,20.93098,0.4398015,0,23.48491,-5.33332,9078.128,59275.8
645,32.25,-5.37492,-0.4397134,0.01147897,0,0,0,0,0,5.374787,21.09425,0.4397134,0,23.69161,-5.37492,9057.568,58805.2
650,32.5,-5.417054,-0.4400963,0.01148897,0,0,0,0,0,5.41692,21.25961,0.4400963,0,23.90139,-5.417054,9046.457,58398.6
655,32.75,-5.45852,-0.4398806,0.01148334,0,0,0,0,0,5.458386,21.42235,0.4398806,0,24.10829,-5.45852,9023.335,57926.6
660,33.0,-5.499986,-0.4400928,0.01148888,0,0,0,0,0,5.499853,21.58509,0.4400928,0,24.31562,-5.499986,9008.991,57517.6
665,33.25,-5.541986,-0.4405719,0.01150138,0,0,0,0,0,5.541853,21.74993,0.4405719,0,24.52605,-5.541986,8999.839,57143.8
670,33.5,-5.583587,-0.4400315,0.01148728,0,0,0,0,0,5.583454,21.9132,0.4400315,0,24.73491,-5.583587,8970.046,56648.5
675,33.75,-5.625053,-0.4405336,0.01150038,0,0,0,0,0,5.624919,22.07594,0.4405335,0,24.94354,-5.625053,8961.564,56295
680,34.0,-5.667053,-0.44055,0.01150081,0,0,0,0,0,5.66692,22.24077,0.44055,0,25.1553,-5.667053,8942.942,55879.9
685,34.25,-5.708386,-0.4405406,0.01150056,0,0,0,0,0,5.708253,22.40299,0.4405406,0,25.36413,-5.708386,8924.094,55474.1
690,34.5,-5.749986,-0.4408715,0.0115092,0,0,0,0,0,5.749853,22.56626,0.4408715,0,25.57476,-5.749986,8912.008,55114.1
695,34.75,-5.791853,-0.4409102,0.01151021,0,0,0,0,0,5.791719,22.73057,0.4409102,0,25.78718,-5.791853,8893.876,54720.5
700,35.0,-5.833319,-0.4416247,0.01152887,0,0,0,0,0,5.833185,22.89331,0.4416247,0,25.99802,-5.833319,8889.526,54419.5
705,35.25,-5.875186,-0.4418761,0.01153543,0,0,0,0,0,5.875052,23.05762,0.4418761,0,26.21134,-5.875186,8875.633,54062.5
710,35.5,-5.916785,-0.4424966,0.01155163,0,0,0,0,0,5.916652,23.22089,0.4424966,0,26.42376,-5.916785,8869.236,53757.8
715,35.75,-5.958519,-0.4431333,0.01156825,0,0,0,0,0,5.958386,23.38468,0.4431333,0,26.63732,-5.958519,8863.05,53458
720,36.0,-6.000252,-0.4435703,0.01157966,0,0,0,0,0,6.000119,23.54847,0.4435703,0,26.85132,-6.000252,8852.824,53138.6
725,36.25,-6.041585,-0.4439413,0.01158934,0,0,0,0,0,6.041452,23.71069,0.4439413,0,27.06374,-6.041585,8841.428,52819.2
730,36.5,-6.083719,-0.4445918,0.01160632,0,0,0,0,0,6.083585,23.87605,0.4445918,0,27.28072,-6.083719,8835.193,52530.2
735,36.75,-6.125185,-0.4446197,0.01160705,0,0,0,0,0,6.125052,24.03879,0.4446197,0,27.49474,-6.125185,8816.856,52177.9
740,37.0,-6.166785,-0.4448909,0.01161413,0,0,0,0,0,6.166652,24.20206,0.4448909,0,27.7099,-6.166785,8803.273,51857.5
745,37.25,-6.208652,-0.4453687,0.01162661,0,0,0,0,0,6.208519,24.36637,0.4453687,0,27.92692,-6.208652,8793.624,51563.1
750,37.5,-6.249985,-0.4456726,0.01163454,0,0,0,0,0,6.249852,24.52859,0.4456726,0,28.14163,-6.249985,8780.751,51257
755,37.75,-6.291718,-0.4455412,0.01163111,0,0,0,0,0,6.291584,24.69238,0.4455412,0,28.35888,-6.291718,8759.112,50902
760,38.0,-6.333318,-0.4455851,0.01163226,0,0,0,0,0,6.333184,24.85564,0.4455851,0,28.57591,-6.333318,8740.983,50572.7
765,38.25,-6.375184,-0.4456343,0.01163354,0,0,0,0,0,6.375051,25.01995,0.4456343,0,28.79482,-6.375184,8722.832,50246.1
770,38.5,-6.416651,-0.4459544,0.0116419,0,0,0,0,0,6.416518,25.1827,0.4459544,0,29.0121,-6.416651,8710.152,49957.2
775,38.75,-6.458518,-0.4460348,0.01164399,0,0,0,0,0,6.458385,25.34701,0.4460348,0,29.23196,-6.458518,8692.59,49642.3
780,39.0,-6.500251,-0.4464462,0.01165473,0,0,0,0,0,6.500117,25.5108,0.4464462,0,29.4516,-6.500251,8681.518,49369.1
785,39.25,-6.541584,-0.4466943,0.01166121,0,0,0,0,0,6.541451,25.67302,0.4466943,0,29.66961,-6.541584,8667.425,49084.4
790,39.5,-6.583717,-0.4471768,0.01167381,0,0,0,0,0,6.583584,25.83838,0.4471768,0,29.89234,-6.583717,8657.484,48823
795,39.75,-6.625184,-0.4474229,0.01168023,0,0,0,0,0,6.625051,26.00112,0.447423,0,30.11202,-6.625184,8643.241,48544.1
800,40.0,-6.666784,-0.4477622,0.01168909,0,0,0,0,0,6.66665,26.16438,0.4477622,0,30.3329,-6.666784,8630.71,48277.8
805,40.25,-6.708517,-0.4477188,0.01168795,0,0,0,0,0,6.708383,26.32817,0.4477188,0,30.55497,-6.708517,8610.73,47972.8
810,40.5,-6.750117,-0.4479176,0.01169315,0,0,0,0,0,6.749983,26.49144,0.4479176,0,30.77683,-6.750117,8595.464,47698.3
815,40.75,-6.791983,-0.4479293,0.01169345,0,0,0,0,0,6.79185,26.65575,0.4479293,0,31.00061,-6.791983,8576.474,47405.5
820,41.0,-6.833317,-0.4480231,0.0116959,0,0,0,0,0,6.833184,26.81797,0.4480231,0,31.22203,-6.833317,8559.296,47128.6
825,41.25,-6.874917,-0.4482552,0.01170196,0,0,0,0,0,6.874784,26.98124,0.4482552,0,31.44538,-6.874917,8544.626,46867.7
830,41.5,-6.916916,-0.4484123,0.01170606,0,0,0,0,0,6.916783,27.14607,0.4484123,0,31.67137,-6.916916,8528.324,46599.4
835,41.75,-6.958249,-0.4486641,0.01171263,0,0,0,0,0,6.958116,27.30829,0.4486641,0,31.89428,-6.958249,8514.113,46348.6
840,42.0,-7.000249,-0.4490283,0.01172214,0,0,0,0,0,7.000116,27.47313,0.4490283,0,32.1213,-7.000249,8501.702,46107.9
845,42.25,-7.04185,-0.4496502,0.01173837,0,0,0,0,0,7.041717,27.63639,0.4496502,0,32.34667,-7.04185,8494.312,45899
850,42.5,-7.083316,-0.4498186,0.01174277,0,0,0,0,0,7.083183,27.79914,0.4498186,0,32.57182,-7.083316,8478.384,45647.4
855,42.75,-7.125183,-0.4504582,0.01175947,0,0,0,0,0,7.12505,27.96345,0.4504582,0,32.79965,-7.125183,8471.117,45443.7
860,43.0,-7.166916,-0.4506962,0.01176568,0,0,0,0,0,7.166782,28.12724,0.4506962,0,33.02728,-7.166916,8456.322,45203
865,43.25,-7.208516,-0.4510661,0.01177534,0,0,0,0,0,7.208382,28.2905,0.4510661,0,33.2547,-7.208516,8444.036,44979
870,43.5,-7.250249,-0.4515206,0.01178721,0,0,0,0,0,7.250116,28.45429,0.4515206,0,33.48337,-7.250249,8433.239,44765.1
875,43.75,-7.291849,-0.4517059,0.01179204,0,0,0,0,0,7.291716,28.61756,0.451706,0,33.71183,-7.291849,8417.448,44528
880,44.0,-7.333449,-0.4521786,0.01180438,0,0,0,0,0,7.333315,28.78082,0.4521786,0,33.94081,-7.333449,8406.984,44321.8
885,44.25,-7.374915,-0.4525033,0.01181286,0,0,0,0,0,7.374782,28.94357,0.4525033,0,34.16958,-7.374915,8393.796,44104.2
890,44.5,-7.417048,-0.453114,0.0118288,0,0,0,0,0,7.416914,29.10892,0.453114,0,34.40256,-7.417048,8385.564,43912.8
895,44.75,-7.458382,-0.4536139,0.01184185,0,0,0,0,0,7.458249,29.27114,0.4536139,0,34.63166,-7.458382,8375.605,43717.6
900,45.0,-7.500115,-0.4539171,0.01184976,0,0,0,0,0,7.499982,29.43493,0.4539171,0,34.8635,-7.500115,8361.795,43503.4
905,45.25,-7.541848,-0.4542665,0.01185889,0,0,0,0,0,7.541715,29.59872,0.4542665,0,35.09588,-7.541848,8348.808,43296
910,45.5,-7.583448,-0.4546915,0.01186998,0,0,0,0,0,7.583314,29.76199,0.4546915,0,35.32805,-7.583448,8337.239,43098.8
915,45.75,-7.625181,-0.4549374,0.0118764,0,0,0,0,0,7.625048,29.92578,0.4549374,0,35.56151,-7.625181,8322.296,42886.1
920,46.0,-7.666781,-0.455531,0.0118919,0,0,0,0,0,7.666648,30.08904,0.455531,0,35.79478,-7.666781,8313.74,42709
925,46.25,-7.708648,-0.4561886,0.01190907,0,0,0,0,0,7.708515,30.25336,0.4561886,0,36.03009,-7.708648,8306.174,42538.4
930,46.5,-7.750114,-0.4566166,0.01192024,0,0,0,0,0,7.749981,30.4161,0.4566166,0,36.26369,-7.750114,8294.567,42350.5
935,46.75,-7.791847,-0.4571287,0.01193361,0,0,0,0,0,7.791714,30.57989,0.4571287,0,36.49935,-7.791847,8284.323,42170.9
940,47.0,-7.833715,-0.4576644,0.01194759,0,0,0,0,0,7.833581,30.7442,0.4576644,0,36.73633,-7.833715,8274.4,41994.7
945,47.25,-7.874914,-0.4578157,0.01195154,0,0,0,0,0,7.874781,30.9059,0.4578157,0,36.97008,-7.874914,8257.81,41788.8
950,47.5,-7.916781,-0.458213,0.01196191,0,0,0,0,0,7.916648,31.07021,0.458213,0,37.20817,-7.916781,8245.321,41603.8
955,47.75,-7.958648,-0.4585101,0.01196967,0,0,0,0,0,7.958515,31.23452,0.4585101,0,37.44683,-7.958648,8231.001,41411.8
960,48.0,-7.999981,-0.4583317,0.01196501,0,0,0,0,0,7.999847,31.39674,0.4583317,0,37.68301,-7.999981,8208.389,41181.8
965,48.25,-8.04158,-0.4585353,0.01197033,0,0,0,0,0,8.041447,31.56,0.4585353,0,37.92128,-8.04158,8192.492,40987
970,48.5,-8.083714,-0.4586087,0.01197224,0,0,0,0,0,8.083581,31.72536,0.4586087,0,38.16319,-8.083714,8174.006,40779.9
975,48.75,-8.12518,-0.4583536,0.01196558,0,0,0,0,0,8.125047,31.88811,0.4583536,0,38.40184,-8.12518,8149.985,40549.2
980,49.0,-8.166647,-0.4582772,0.01196359,0,0,0,0,0,8.166512,32.05085,0.4582772,0,38.64105,-8.166647,8129.158,40336.6
985,49.25,-8.208646,-0.458146,0.01196016,0,0,0,0,0,8.208513,32.21568,0.458146,0,38.88393,-8.208646,8107.115,40118.7
990,49.5,-8.250247,-0.4579487,0.01195501,0,0,0,0,0,8.250113,32.37895,0.4579487,0,39.12509,-8.250247,8084.106,39899.2
995,49.75,-8.29158,-0.457942,0.01195484,0,0,0,0,0,8.291447,32.54117,0.4579419,0,39.36527,-8.29158,8064.593,39699.7
1000,50.0,-8.333713,-0.4581367,0.01195992,0,0,0,0,0,8.33358,32.70653,0.4581367,0,39.61069,-8.333713,8048.247,39515.8
1005,50.25,-8.37518,-0.4583479,0.01196544,0,0,0,0,0,8.375046,32.86927,0.4583479,0,39.85283,-8.37518,8032.484,39338.3
1010,50.5,-8.416779,-0.4586118,0.01197232,0,0,0,0,0,8.416646,33.03254,0.4586118,0,40.09633,-8.416779,8017.561,39166.4
1015,50.75,-8.458513,-0.4593645,0.01199197,0,0,0,0,0,8.45838,33.19633,0.4593645,0,40.34121,-8.458513,8011.08,39037.1
1020,51.0,-8.499979,-0.4599881,0.01200825,0,0,0,0,0,8.499846,33.35907,0.4599881,0,40.58512,-8.499979,8002.412,38899.4
1025,51.25,-8.541846,-0.4605304,0.01202241,0,0,0,0,0,8.541713,33.52338,0.4605304,0,40.83199,-8.541846,7992.092,38754.4
1030,51.5,-8.583313,-0.4614992,0.0120477,0,0,0,0,0,8.583179,33.68612,0.4614992,0,41.0771,-8.583313,7989.299,38648.3
1035,51.75,-8.62518,-0.4619219,0.01205873,0,0,0,0,0,8.625047,33.85044,0.4619218,0,41.32519,-8.62518,7976.8,38495.9
1040,52.0,-8.666912,-0.4627205,0.01207958,0,0,0,0,0,8.666779,34.01423,0.4627205,0,41.5731,-8.666912,7970.807,38376.8
1045,52.25,-8.708245,-0.4633088,0.01209494,0,0,0,0,0,8.708112,34.17644,0.4633088,0,41.81924,-8.708245,7961.32,38243.2
1050,52.5,-8.750379,-0.4640299,0.01211377,0,0,0,0,0,8.750246,34.3418,0.4640299,0,42.07078,-8.750379,7953.681,38118.3
1055,52.75,-8.791712,-0.4654779,0.01215157,0,0,0,0,0,8.791578,34.50402,0.4654779,0,42.31814,-8.791712,7958.788,38057.4
1060,53.0,-8.833446,-0.4647881,0.01213356,0,0,0,0,0,8.833312,34.66781,0.4647881,0,42.56854,-8.833446,7927.12,37821.5
1065,53.25,-8.875312,-0.4664468,0.01217686,0,0,0,0,0,8.875179,34.83213,0.4664468,0,42.82036,-8.875312,7935.401,37777.4
1070,53.5,-8.916645,-0.4656204,0.01215529,0,0,0,0,0,8.916512,34.99434,0.4656204,0,43.06959,-8.916645,7901.625,37535.7
1075,53.75,-8.958378,-0.466983,0.01219086,0,0,0,0,0,8.958244,35.15813,0.466983,0,43.32187,-8.958378,7904.781,37470.2
1080,54.0,-9.000111,-0.4672119,0.01219684,0,0,0,0,0,8.999978,35.32192,0.4672119,0,43.57478,-9.000111,7888.679,37314.7
1085,54.25,-9.041845,-0.4678875,0.01221447,0,0,0,0,0,9.041712,35.48571,0.4678875,0,43.82834,-9.041845,7880.079,37196.2
1090,54.5,-9.083311,-0.4683136,0.01222559,0,0,0,0,0,9.083177,35.64845,0.4683136,0,44.08091,-9.083311,7867.36,37060.1
1095,54.75,-9.125178,-0.4688101,0.01223856,0,0,0,0,0,9.125045,35.81276,0.4688101,0,44.33658,-9.125178,7855.592,36929.1
1100,55.0,-9.167044,-0.4693873,0.01225362,0,0,0,0,0,9.166911,35.97708,0.4693873,0,44.5929,-9.167044,7845.128,36805.7
1105,55.25,-9.208377,-0.4694795,0.01225603,0,0,0,0,0,9.208244,36.13929,0.4694796,0,44.8466,-9.208377,7826.789,36647.7
1110,55.5,-9.250244,-0.4696041,0.01225928,0,0,0,0,0,9.250111,36.30361,0.4696041,0,45.10423,-9.250244,7808.722,36491.5
1115,55.75,-9.291844,-0.4696105,0.01225945,0,0,0,0,0,9.29171,36.46687,0.4696105,0,45.36087,-9.291844,7788.812,36328.7
1120,56.0,-9.333444,-0.4697857,0.01226402,0,0,0,0,0,9.333311,36.63014,0.4697857,0,45.61818,-9.333444,7771.695,36180.2
1125,56.25,-9.375177,-0.4695601,0.01225813,0,0,0,0,0,9.375044,36.79393,0.4695601,0,45.87698,-9.375177,7747.886,36001.9
1130,56.5,-9.416777,-0.4694302,0.01225474,0,0,0,0,0,9.416643,36.95719,0.4694302,0,46.13562,-9.416777,7725.735,35832.9
1135,56.75,-9.45851,-0.4691138,0.01224648,0,0,0,0,0,9.458377,37.12098,0.4691138,0,46.39577,-9.45851,7700.469,35650.8
1140,57.0,-9.500111,-0.4691005,0.01224614,0,0,0,0,0,9.499976,37.28425,0.4691005,0,46.65575,-9.500111,7680.257,35493.7
1145,57.25,-9.54171,-0.4687679,0.01223745,0,0,0,0,0,9.541576,37.44751,0.4687679,0,46.91642,-9.54171,7654.832,35313.8
1150,57.5,-9.58371,-0.4688114,0.01223859,0,0,0,0,0,9.583576,37.61235,0.4688114,0,47.18028,-9.58371,7635.368,35162.3
1155,57.75,-9.624776,-0.4685526,0.01223184,0,0,0,0,0,9.624643,37.77352,0.4685526,0,47.43896,-9.624776,7611.44,34993
1160,58.0,-9.666909,-0.4686922,0.01223548,0,0,0,0,0,9.666777,37.93888,0.4686922,0,47.70505,-9.666909,7593.476,34850.8
1165,58.25,-9.708643,-0.4685073,0.01223065,0,0,0,0,0,9.708508,38.10267,0.4685073,0,47.96931,-9.708643,7570.446,34687.4
1170,58.5,-9.749976,-0.4682684,0.01222441,0,0,0,0,0,9.749843,38.26489,0.4682684,0,48.23174,-9.749976,7546.756,34522.7
1175,58.75,-9.791843,-0.4683607,0.01222682,0,0,0,0,0,9.79171,38.4292,0.4683607,0,48.49825,-9.791843,7528.153,34381.8
1180,59.0,-9.833576,-0.4677195,0.01221008,0,0,0,0,0,9.833443,38.59299,0.4677195,0,48.76462,-9.833576,7497.848,34189.1
1185,59.25,-9.87531,-0.4673672,0.01220089,0,0,0,0,0,9.875176,38.75678,0.4673672,0,49.03171,-9.87531,7472.217,34018.9
1190,59.5,-9.916776,-0.4669907,0.01219106,0,0,0,0,0,9.916642,38.91952,0.4669907,0,49.29778,-9.916776,7446.358,33849.4
1195,59.75,-9.958376,-0.4663539,0.01217444,0,0,0,0,0,9.958243,39.08279,0.466354,0,49.56545,-9.958376,7416.327,33662
1200,60.0,-9.999976,-0.4660827,0.01216736,0,0,0,0,0,9.999843,39.24606,0.4660827,0,49.83382,-9.999976,7392.149,33502.5
1205,60.25,-10.04158,-0.4657895,0.0121597,0,0,0,0,0,10.04144,39.40932,0.4657895,0,50.10291,-10.04158,7367.645,33342.7
1210,60.5,-10.08384,-0.4657365,0.01215832,0,0,0,0,0,10.08371,39.5752,0.4657365,0,50.37706,-10.08384,7346.639,33199.2
1215,60.75,-10.12491,-0.4650643,0.01214077,0,0,0,0,0,10.12477,39.73637,0.4650643,0,50.64415,-10.12491,7316.468,33016.8
1220,61.0,-10.16678,-0.4644786,0.01212548,0,0,0,0,0,10.16664,39.90069,0.4644786,0,50.91718,-10.16678,7287.33,32839.4
1225,61.25,-10.20864,-0.4644035,0.01212352,0,0,0,0,0,10.20851,40.065,0.4644035,0,51.19096,-10.20864,7266.232,32699.4
1230,61.5,-10.24998,-0.4640181,0.01211346,0,0,0,0,0,10.24984,40.22722,0.464018,0,51.46198,-10.24998,7240.55,32540.6
1235,61.75,-10.29184,-0.4633893,0.01209704,0,0,0,0,0,10.29171,40.39153,0.4633893,0,51.73726,-10.29184,7210.863,32364.3
1240,62.0,-10.33331,-0.4628019,0.01208171,0,0,0,0,0,10.33317,40.55427,0.4628018,0,52.01064,-10.33331,7182.059,32193.5
1245,62.25,-10.37531,-0.4620968,0.0120633,0,0,0,0,0,10.37517,40.71911,0.4620968,0,52.28832,-10.37531,7151.232,32014.4
1250,62.5,-10.41691,-0.4612661,0.01204162,0,0,0,0,0,10.41677,40.88238,0.4612661,0,52.56411,-10.41691,7118.717,31829.2
1255,62.75,-10.45851,-0.4607481,0.01202809,0,0,0,0,0,10.45837,41.04564,0.4607481,0,52.84066,-10.45851,7091.086,31667
1260,63.0,-10.50037,-0.4603512,0.01201773,0,0,0,0,0,10.50024,41.20995,0.4603512,0,53.11976,-10.50037,7065.231,31513.6
1265,63.25,-10.54157,-0.4597941,0.01200319,0,0,0,0,0,10.54144,41.37165,0.4597941,0,53.39518,-10.54157,7037.272,31352.4
1270,63.5,-10.58344,-0.4598495,0.01200464,0,0,0,0,0,10.58331,41.53596,0.4598495,0,53.67583,-10.58344,7018.394,31232.1
1275,63.75,-10.62531,-0.459951,0.01200729,0,0,0,0,0,10.62517,41.70028,0.459951,0,53.95728,-10.62531,7000.214,31115.9
1280,64.0,-10.66677,-0.4598722,0.01200523,0,0,0,0,0,10.66664,41.86301,0.4598722,0,54.23682,-10.66677,6979.477,30989.7
1285,64.25,-10.70837,-0.4599606,0.01200753,0,0,0,0,0,10.70824,42.02628,0.4599606,0,54.51804,-10.70837,6961.214,30875.2
1290,64.5,-10.75037,-0.4601897,0.01201352,0,0,0,0,0,10.75024,42.19112,0.4601897,0,54.80278,-10.75037,6944.879,30769.9
1295,64.75,-10.79184,-0.4599035,0.01200604,0,0,0,0,0,10.79171,42.35386,0.4599035,0,55.08469,-10.79184,6921.021,30632.6
1300,65.0,-10.83317,-0.4599304,0.01200675,0,0,0,0,0,10.83304,42.51608,0.4599304,0,55.36649,-10.83317,6901.949,30517.5
1305,65.25,-10.87531,-0.4599474,0.01200719,0,0,0,0,0,10.87517,42.68144,0.4599473,0,55.65457,-10.87531,6882.348,30400.4
1310,65.5,-10.91691,-0.4604321,0.01201984,0,0,0,0,0,10.91677,42.8447,0.4604321,0,55.93981,-10.91691,6869.977,30316.5
1315,65.75,-10.95837,-0.4604333,0.01201988,0,0,0,0,0,10.95824,43.00745,0.4604333,0,56.22496,-10.95837,6850.434,30201.8
1320,66.0,-11.00024,-0.4602245,0.01201442,0,0,0,0,0,11.00011,43.17176,0.4602245,0,56.51368,-11.00024,6827.586,30073.2
1325,66.25,-11.04171,-0.46061,0.01202449,0,0,0,0,0,11.04157,43.3345,0.46061,0,56.80046,-11.04171,6813.736,29985.4
1330,66.5,-11.08331,-0.4606736,0.01202615,0,0,0,0,0,11.08317,43.49777,0.4606736,0,57.08901,-11.08331,6795.042,29877
1335,66.75,-11.12517,-0.4607107,0.01202712,0,0,0,0,0,11.12504,43.66208,0.4607107,0,57.38023,-11.12517,6775.828,29766.9
1340,67.0,-11.16651,-0.4605537,0.01202302,0,0,0,0,0,11.16637,43.8243,0.4605537,0,57.66859,-11.16651,6754.014,29646.6
1345,67.25,-11.20864,-0.4606086,0.01202445,0,0,0,0,0,11.20851,43.98966,0.4606086,0,57.96338,-11.20864,6734.937,29538.7
1350,67.5,-11.25024,-0.4605247,0.01202226,0,0,0,0,0,11.2501,44.15292,0.4605247,0,58.25529,-11.25024,6714.083,29424.1
1355,67.75,-11.29184,-0.4605342,0.01202251,0,0,0,0,0,11.29171,44.31619,0.4605342,0,58.54807,-11.29184,6694.591,29316.3
1360,68.0,-11.33357,-0.4601347,0.01201208,0,0,0,0,0,11.33344,44.47998,0.4601347,0,58.84265,-11.33357,6669.109,29183
1365,68.25,-11.37491,-0.4596212,0.01199867,0,0,0,0,0,11.37477,44.6422,0.4596212,0,59.13526,-11.37491,6642.202,29044.6
1370,68.5,-11.41717,-0.459458,0.01199441,0,0,0,0,0,11.41704,44.80808,0.459458,0,59.43536,-11.41717,6619.948,28926.7
1375,68.75,-11.45851,-0.4590742,0.01198439,0,0,0,0,0,11.45837,44.9703,0.4590742,0,59.72971,-11.45851,6594.977,28798.3
1380,69.0,-11.49997,-0.4585932,0.01197184,0,0,0,0,0,11.49984,45.13304,0.4585932,0,60.02589,-11.49997,6568.583,28664.4
1385,69.25,-11.54197,-0.4591261,0.01198575,0,0,0,0,0,11.54184,45.29788,0.4591261,0,60.32677,-11.54197,6556.46,28593.3
1390,69.5,-11.5833,-0.4586344,0.01197291,0,0,0,0,0,11.58317,45.46009,0.4586343,0,60.62376,-11.5833,6530.015,28460.8
1395,69.75,-11.62504,-0.4589124,0.01198017,0,0,0,0,0,11.62491,45.62389,0.4589124,0,60.92452,-11.62504,6514.352,28375.8
1400,70.0,-11.66677,-0.4588791,0.0119793,0,0,0,0,0,11.66664,45.78767,0.4588791,0,61.22619,-11.66677,6494.259,28272.2
1405,70.25,-11.7085,-0.4591197,0.01198558,0,0,0,0,0,11.70837,45.95146,0.4591197,0,61.52877,-11.7085,6478.032,28186.2
1410,70.5,-11.74997,-0.459429,0.01199366,0,0,0,0,0,11.74984,46.11421,0.459429,0,61.83033,-11.74997,6462.877,28105.7
1415,70.75,-11.79184,-0.4598744,0.01200528,0,0,0,0,0,11.79171,46.27852,0.4598744,0,62.13573,-11.79184,6449.416,28033
1420,71.0,-11.8337,-0.4606039,0.01202433,0,0,0,0,0,11.83357,46.44283,0.4606039,0,62.44205,-11.8337,6439.89,27978.2
1425,71.25,-11.87504,-0.460721,0.01202739,0,0,0,0,0,11.8749,46.60505,0.460721,0,62.7454,-11.87504,6422.017,27887.9
1430,71.5,-11.9169,-0.4609814,0.01203418,0,0,0,0,0,11.91677,46.76936,0.4609814,0,63.05361,-11.9169,6405.873,27805.6
1435,71.75,-11.9585,-0.4611854,0.01203951,0,0,0,0,0,11.95837,46.93263,0.4611853,0,63.36079,-11.9585,6389.051,27721.1
1440,72.0,-12.0001,-0.4617353,0.01205386,0,0,0,0,0,11.99997,47.09589,0.4617352,0,63.66892,-12.0001,6376.989,27658
1445,72.25,-12.04184,-0.4616262,0.01205102,0,0,0,0,0,12.0417,47.25968,0.4616262,0,63.979,-12.04184,6355.744,27555.6
1450,72.5,-12.08344,-0.4619242,0.0120588,0,0,0,0,0,12.0833,47.42295,0.4619242,0,64.28904,-12.08344,6340.159,27478.5
1455,72.75,-12.1253,-0.4621641,0.01206506,0,0,0,0,0,12.12517,47.58726,0.4621641,0,64.60205,-12.1253,6323.628,27397.8
1460,73.0,-12.16664,-0.4621995,0.01206598,0,0,0,0,0,12.1665,47.74948,0.4621994,0,64.91203,-12.16664,6304.538,27306.8
1465,73.25,-12.20837,-0.4625804,0.01207593,0,0,0,0,0,12.20824,47.91327,0.4625804,0,65.226,-12.20837,6289.955,27235.9
1470,73.5,-12.25024,-0.4628409,0.01208273,0,0,0,0,0,12.2501,48.07758,0.4628409,0,65.54196,-12.25024,6273.644,27158.1
1475,73.75,-12.29157,-0.4628757,0.01208364,0,0,0,0,0,12.29144,48.2398,0.4628757,0,65.85487,-12.29157,6254.514,27068.8
1480,74.0,-12.33357,-0.4630078,0.01208708,0,0,0,0,0,12.33344,48.40464,0.4630078,0,66.17384,-12.33357,6236.375,26984.3
1485,74.25,-12.3753,-0.4628912,0.01208404,0,0,0,0,0,12.37517,48.56842,0.4628912,0,66.49179,-12.3753,6215.012,26886.5
1490,74.5,-12.41664,-0.4626107,0.01207672,0,0,0,0,0,12.4165,48.73064,0.4626107,0,66.8077,-12.41664,6191.656,26780.8
1495,74.75,-12.4585,-0.4628585,0.01208319,0,0,0,0,0,12.45837,48.89496,0.4628585,0,67.1287,-12.4585,6175.118,26705.1
1500,75.0,-12.50037,-0.4629305,0.01208507,0,0,0,0,0,12.50024,49.05927,0.4629305,0,67.45074,-12.50037,6156.22,26619.8
1505,75.25,-12.54184,-0.4631206,0.01209003,0,0,0,0,0,12.5417,49.22201,0.4631206,0,67.77072,-12.54184,6139.074,26542.7
1510,75.5,-12.58344,-0.463468,0.0120991,0,0,0,0,0,12.5833,49.38528,0.463468,0,68.09277,-12.58344,6123.925,26474.8
1515,75.75,-12.6253,-0.4637313,0.01210597,0,0,0,0,0,12.62517,49.54959,0.4637313,0,68.41793,-12.6253,6107.512,26402
1520,76.0,-12.66664,-0.4637159,0.01210557,0,0,0,0,0,12.6665,49.71181,0.4637159,0,68.73999,-12.66664,6087.671,26315
1525,76.25,-12.70837,-0.4636629,0.01210419,0,0,0,0,0,12.70824,49.8756,0.4636629,0,69.06622,-12.70837,6067.151,26225.5
1530,76.5,-12.75024,-0.463342,0.01209581,0,0,0,0,0,12.7501,50.03991,0.463342,0,69.39457,-12.75024,6043.077,26121.3
1535,76.75,-12.79157,-0.4629387,0.01208528,0,0,0,0,0,12.79143,50.20213,0.4629387,0,69.71979,-12.79157,6018.213,26014.3
1540,77.0,-12.83344,-0.4630507,0.0120882,0,0,0,0,0,12.8333,50.36644,0.4630507,0,70.0503,-12.83344,5999.806,25935.7
1545,77.25,-12.87517,-0.4634664,0.01209906,0,0,0,0,0,12.87504,50.53023,0.4634664,0,70.38084,-12.87517,5985.375,25874.8
1550,77.5,-12.91677,-0.463771,0.01210701,0,0,0,0,0,12.91664,50.6935,0.463771,0,70.71142,-12.91677,5969.542,25808.4
1555,77.75,-12.95863,-0.4640337,0.01211387,0,0,0,0,0,12.9585,50.85781,0.4640337,0,71.04522,-12.95863,5953.02,25739.6
1560,78.0,-13.0001,-0.4646087,0.01212888,0,0,0,0,0,12.99997,51.02055,0.4646087,0,71.37693,-13.0001,5940.657,25689.3
1565,78.25,-13.04197,-0.4648393,0.0121349,0,0,0,0,0,13.04183,51.18486,0.4648393,0,71.71298,-13.04197,5923.666,25619.6
1570,78.5,-13.08357,-0.4654954,0.01215202,0,0,0,0,0,13.08344,51.34813,0.4654954,0,72.04799,-13.08357,5912.187,25574.1
1575,78.75,-13.12503,-0.465848,0.01216123,0,0,0,0,0,13.1249,51.51087,0.4658481,0,72.38306,-13.12503,5896.874,25512.7
1580,79.0,-13.16703,-0.4665894,0.01218058,0,0,0,0,0,13.1669,51.67571,0.4665894,0,72.72358,-13.16703,5886.181,25471.7
1585,79.25,-13.20823,-0.4668643,0.01218776,0,0,0,0,0,13.2081,51.8374,0.4668643,0,73.05874,-13.20823,5869.942,25407.2
1590,79.5,-13.2501,-0.4675472,0.01220559,0,0,0,0,0,13.24997,52.00172,0.4675472,0,73.40049,-13.2501,5858.473,25364
1595,79.75,-13.29183,-0.4683444,0.0122264,0,0,0,0,0,13.2917,52.1655,0.4683444,0,73.74231,-13.29183,5848.437,25327.5
1600,80.0,-13.3333,-0.4687711,0.01223754,0,0,0,0,0,13.33317,52.32825,0.4687711,0,74.08312,-13.3333,5833.849,25271.7
1605,80.25,-13.3753,-0.4696304,0.01225997,0,0,0,0,0,13.37517,52.49308,0.4696304,0,74.42949,-13.3753,5824.334,25238.5
1610,80.50001,-13.41703,-0.4705577,0.01228418,0,0,0,0,0,13.4169,52.65687,0.4705577,0,74.77484,-13.41703,5815.715,25209.7
1615,80.75001,-13.45863,-0.4710276,0.01229644,0,0,0,0,0,13.4585,52.82014,0.4710276,0,75.1203,-13.45863,5801.446,25156.9
1620,81.00001,-13.49997,-0.471938,0.01232021,0,0,0,0,0,13.49983,52.98236,0.471938,0,75.46472,-13.49997,5792.673,25128.3
1625,81.25001,-13.54183,-0.4725121,0.0123352,0,0,0,0,0,13.5417,53.14667,0.4725121,0,75.81481,-13.54183,5779.452,25081.1
1630,81.50001,-13.58357,-0.4734452,0.01235956,0,0,0,0,0,13.58343,53.31046,0.4734452,0,76.165,-13.58357,5770.622,25053.5
1635,81.75001,-13.62503,-0.4743009,0.0123819,0,0,0,0,0,13.6249,53.4732,0.4743009,0,76.51416,-13.62503,5760.901,25022.3
1640,82.00001,-13.66703,-0.4753418,0.01240907,0,0,0,0,0,13.6669,53.63803,0.4753418,0,76.86908,-13.66703,5753.088,25000.2
1645,82.25001,-13.7085,-0.476587,0.01244158,0,0,0,0,0,13.70837,53.80078,0.476587,0,77.22073,-13.7085,5747.911,24989.9
1650,82.50001,-13.7501,-0.47767,0.01246985,0,0,0,0,0,13.74997,53.96404,0.47767,0,77.57474,-13.7501,5740.614,24970.9
1655,82.75001,-13.79183,-0.4788862,0.0125016,0,0,0,0,0,13.7917,54.12783,0.4788862,0,77.93117,-13.79183,5734.755,24958.7
1660,83.00001,-13.83343,-0.4799245,0.01252871,0,0,0,0,0,13.8333,54.2911,0.4799245,0,78.2877,-13.83343,5726.734,24937.6
1665,83.25001,-13.8753,-0.4808983,0.01255412,0,0,0,0,0,13.87517,54.45541,0.4808983,0,78.64783,-13.8753,5717.725,24912.8
1670,83.50001,-13.91677,-0.4820561,0.01258435,0,0,0,0,0,13.91663,54.61815,0.4820561,0,79.0058,-13.91677,5711.012,24898.4
1675,83.75001,-13.95837,-0.4832754,0.01261618,0,0,0,0,0,13.95823,54.78142,0.4832754,0,79.36621,-13.95837,5704.858,24886.9
1680,84.00001,-14.00023,-0.4844119,0.01264585,0,0,0,0,0,14.0001,54.94573,0.4844119,0,79.73025,-14.00023,5697.495,24870.9
1685,84.25001,-14.0417,-0.4853406,0.01267009,0,0,0,0,0,14.04157,55.10847,0.4853406,0,80.09212,-14.0417,5687.798,24845
1690,84.50001,-14.0837,-0.486334,0.01269603,0,0,0,0,0,14.08357,55.27331,0.486334,0,80.45998,-14.0837,5678.513,24821.6
1695,84.75001,-14.12517,-0.4868422,0.0127093,0,0,0,0,0,14.12503,55.43605,0.4868422,0,80.82449,-14.12517,5663.764,24774.6
1700,85.00001,-14.16677,-0.4876166,0.01272951,0,0,0,0,0,14.16663,55.59932,0.4876165,0,81.19154,-14.16677,5651.989,24741.1
1705,85.25001,-14.20863,-0.4888925,0.01276282,0,0,0,0,0,14.2085,55.76363,0.4888925,0,81.56229,-14.20863,5645.808,24732.8
1710,85.50001,-14.24997,-0.4894962,0.01277858,0,0,0,0,0,14.24983,55.92585,0.4894962,0,81.92968,-14.24997,5632.05,24691.5
1715,85.75001,-14.2917,-0.4904979,0.01280473,0,0,0,0,0,14.29156,56.08964,0.4904979,0,82.30199,-14.2917,5622.603,24669.8
1720,86.00001,-14.33356,-0.4916814,0.01283563,0,0,0,0,0,14.33343,56.25395,0.4916815,0,82.67688,-14.33356,5615.08,24657
1725,86.25001,-14.3753,-0.4927,0.01286222,0,0,0,0,0,14.37516,56.41774,0.4927,0,83.052,-14.3753,5605.644,24636.4
1730,86.50001,-14.41663,-0.4939706,0.01289539,0,0,0,0,0,14.4165,56.57996,0.4939706,0,83.42491,-14.41663,5599.182,24629.1
1735,86.75001,-14.4585,-0.4950569,0.01292374,0,0,0,0,0,14.45836,56.74427,0.4950569,0,83.80405,-14.4585,5590.259,24611.8
1740,87.00001,-14.50036,-0.4964058,0.01295896,0,0,0,0,0,14.50023,56.90858,0.4964058,0,84.18464,-14.50036,5584.198,24607.6
1745,87.25001,-14.5417,-0.4975797,0.0129896,0,0,0,0,0,14.54156,57.0708,0.4975797,0,84.56179,-14.5417,5576.333,24595.7
1750,87.50001,-14.58356,-0.4986269,0.01301694,0,0,0,0,0,14.58343,57.23512,0.4986269,0,84.94529,-14.58356,5566.68,24576.7
1755,87.75001,-14.62516,-0.4996641,0.01304402,0,0,0,0,0,14.62503,57.39838,0.4996641,0,85.3278,-14.62516,5556.962,24557.8
1760,88.00001,-14.66663,-0.5005563,0.01306731,0,0,0,0,0,14.6665,57.56112,0.5005563,0,85.71054,-14.66663,5545.62,24532
1765,88.25001,-14.70863,-0.502094,0.01310745,0,0,0,0,0,14.7085,57.72596,0.502094,0,86.0997,-14.70863,5541.05,24537.1
1770,88.50001,-14.7501,-0.503413,0.01314189,0,0,0,0,0,14.74996,57.8887,0.503413,0,86.4854,-14.7501,5534.219,24532.4
1775,88.75001,-14.79183,-0.5050089,0.01318355,0,0,0,0,0,14.7917,58.05249,0.5050089,0,86.87511,-14.79183,5530.17,24540.8
1780,89.00001,-14.8333,-0.5066931,0.01322751,0,0,0,0,0,14.83316,58.21523,0.5066931,0,87.26383,-14.8333,5527.086,24553.8
1785,89.25001,-14.87503,-0.50862,0.01327782,0,0,0,0,0,14.8749,58.37902,0.50862,0,87.65659,-14.87503,5526.357,24578
1790,89.50001,-14.9169,-0.5103189,0.01332217,0,0,0,0,0,14.91676,58.54333,0.5103189,0,88.05215,-14.9169,5522.927,24590.9
1795,89.75001,-14.9581,-0.5121521,0.01337002,0,0,0,0,0,14.95796,58.70503,0.5121521,0,88.44294,-14.9581,5521.148,24611.3
1800,90.00001,-15.00023,-0.514688,0.01343622,0,0,0,0,0,15.0001,58.87039,0.514688,0,88.84419,-15.00023,5526.267,24663.6
1803,90.10201,-15.0173,-0.5156436,0.01346117,0,0,0,0,0,15.01716,58.93737,0.5156436,0,89.00716,-15.0173,5527.512,24681.4