File: GFBaking/em/xg3.csv
,Time sec,Extension mm,Load kgf,Compressive stress MPa,Cycle Count ,Total Cycle Count ,Repetitions Count ,Marked Data ,PIP Count ,Compressive extension mm,Compressive strain %,Compressive load kgf,Displacement (Strain 1) mm,True strain %,Corrected Position mm,True stress Pa,Elastic Modulus
0,0.0,-0.7078649,-0.008656339,0.0002239262,0,0,0,0,0,-1.04361e-16,-4.440892e-16,0.00865634,0,0.0,-0.7078649,223.9262,-5.96216e+19
5,0.25,-0.7459982,-0.0118095,0.0003054937,0,0,0,0,0,0.03813323,0.1622691,0.0118095,0,0.1624009,-0.7459982,304.9979,222605
10,0.5,-0.7906648,-0.01468095,0.0003797736,0,0,0,0,0,0.08279981,0.3523397,0.01468095,0,0.3529618,-0.7906648,378.4356,127448
15,0.7500001,-0.832798,-0.01744884,0.0004513747,0,0,0,0,0,0.124933,0.5316299,0.01744884,0,0.5330481,-0.832798,448.9751,100391
20,1.0,-0.8745312,-0.02017065,0.0005217839,0,0,0,0,0,0.1666663,0.7092183,0.02017065,0,0.7117451,-0.8745312,518.0833,86992
25,1.25,-0.9162644,-0.02268347,0.0005867867,0,0,0,0,0,0.2083995,0.8868064,0.02268347,0,0.8907619,-0.9162644,581.583,78238.4
30,1.5,-0.9579976,-0.02545219,0.000658409,0,0,0,0,0,0.2501327,1.064394,0.02545219,0,1.0701,-0.9579976,651.401,73141.2
35,1.75,-0.9997309,-0.02779091,0.0007189081,0,0,0,0,0,0.2918659,1.241983,0.02779091,0,1.24976,-0.9997309,709.9794,68442.6
40,2.0,-1.041197,-0.03049268,0.000788799,0,0,0,0,0,0.3333325,1.418436,0.03049268,0,1.428592,-1.041197,777.6103,65754.5
45,2.25,-1.083064,-0.03312955,0.0008570106,0,0,0,0,0,0.3751991,1.596592,0.03312955,0,1.609475,-1.083064,843.3276,63468.9
50,2.5,-1.124797,-0.03557565,0.0009202876,0,0,0,0,0,0.4169323,1.77418,0.03557565,0,1.790107,-1.124797,903.96,61333.1
55,2.75,-1.165997,-0.03801861,0.000983483,0,0,0,0,0,0.4581322,1.949499,0.03801861,0,1.968752,-1.165997,964.3101,59650.3
60,3.0,-1.208264,-0.04026472,0.001041587,0,0,0,0,0,0.5003988,2.129356,0.04026472,0,2.152354,-1.208264,1019.408,57838.3
65,3.25,-1.249464,-0.04247062,0.00109865,0,0,0,0,0,0.5415987,2.304675,0.04247062,0,2.331648,-1.249464,1073.329,56366.1
70,3.5,-1.291197,-0.04457685,0.001153135,0,0,0,0,0,0.583332,2.482264,0.04457685,0,2.513591,-1.291197,1124.511,54928.9
75,3.75,-1.333197,-0.0469353,0.001214144,0,0,0,0,0,0.6253318,2.660986,0.0469353,0,2.697032,-1.333197,1181.836,53950.6
80,4.0,-1.374663,-0.04924445,0.001273879,0,0,0,0,0,0.6667984,2.83744,0.04924446,0,2.878473,-1.374663,1237.733,53084.8
85,4.25,-1.41613,-0.05146873,0.001331417,0,0,0,0,0,0.7082649,3.013893,0.05146873,0,3.060245,-1.41613,1291.29,52234.2
90,4.5,-1.45813,-0.05372993,0.001389911,0,0,0,0,0,0.7502648,3.192616,0.05372993,0,3.244692,-1.45813,1345.536,51476.5
95,4.75,-1.49973,-0.05565441,0.001439694,0,0,0,0,0,0.7918648,3.369637,0.05565441,0,3.427718,-1.49973,1391.182,50519.1
100,5.0,-1.541196,-0.05795486,0.001499203,0,0,0,0,0,0.8333313,3.546091,0.05795486,0,3.610492,-1.541196,1446.04,49989.6
105,5.25,-1.58293,-0.05960693,0.00154194,0,0,0,0,0,0.8750646,3.723679,0.05960693,0,3.794779,-1.58293,1484.523,48962.5
110,5.5,-1.624796,-0.06167595,0.001595462,0,0,0,0,0,0.9169312,3.901835,0.06167594,0,3.979996,-1.624796,1533.21,48348.9
115,5.75,-1.666129,-0.06351022,0.001642912,0,0,0,0,0,0.9582642,4.07772,0.06351022,0,4.163191,-1.666129,1575.919,47639.3
120,6.0,-1.708129,-0.06567822,0.001698995,0,0,0,0,0,1.000264,4.256444,0.06567822,0,4.349685,-1.708129,1626.678,47197
125,6.25,-1.749729,-0.06722614,0.001739037,0,0,0,0,0,1.041864,4.433464,0.06722614,0,4.534747,-1.749729,1661.938,46380.4
130,6.5,-1.791329,-0.06918686,0.001789758,0,0,0,0,0,1.083464,4.610486,0.06918687,0,4.720153,-1.791329,1707.242,45900.4
135,6.75,-1.833062,-0.07098895,0.001836375,0,0,0,0,0,1.125197,4.788073,0.07098895,0,4.906497,-1.833062,1748.448,45349.2
140,7.0,-1.874529,-0.07266976,0.001879855,0,0,0,0,0,1.166664,4.964527,0.07266976,0,5.091996,-1.874529,1786.529,44772.9
145,7.25,-1.916262,-0.07430292,0.001922103,0,0,0,0,0,1.208397,5.142115,0.07430292,0,5.279036,-1.916262,1823.266,44198.1
150,7.5,-1.957729,-0.07636526,0.001975452,0,0,0,0,0,1.249864,5.318569,0.07636525,0,5.465228,-1.957729,1870.386,43917.8
155,7.75,-1.999595,-0.07740686,0.002002397,0,0,0,0,0,1.29173,5.496725,0.07740686,0,5.653569,-1.999595,1892.33,43074
160,8.0,-2.041462,-0.07916557,0.002047892,0,0,0,0,0,1.333597,5.67488,0.07916557,0,5.842264,-2.041462,1931.676,42669.6
165,8.25,-2.082662,-0.08064865,0.002086257,0,0,0,0,0,1.374797,5.850199,0.08064865,0,6.028305,-2.082662,1964.207,42166.3
170,8.5,-2.124795,-0.08214748,0.002125029,0,0,0,0,0,1.41693,6.029489,0.08214748,0,6.218916,-2.124795,1996.901,41672.8
175,8.75,-2.166528,-0.08303194,0.002147909,0,0,0,0,0,1.458663,6.207077,0.08303194,0,6.408078,-2.166528,2014.587,40916.4
180,9.0,-2.207861,-0.08481751,0.002194099,0,0,0,0,0,1.499996,6.382963,0.08481751,0,6.59578,-2.207861,2054.05,40644.6
185,9.25,-2.249861,-0.08609925,0.002227256,0,0,0,0,0,1.541996,6.561686,0.08609925,0,6.786871,-2.249861,2081.11,40135
190,9.5,-2.291328,-0.08758165,0.002265603,0,0,0,0,0,1.583463,6.73814,0.08758165,0,6.975895,-2.291328,2112.944,39756.9
195,9.75,-2.332928,-0.08899854,0.002302256,0,0,0,0,0,1.625063,6.915161,0.08899854,0,7.165886,-2.332928,2143.051,39365.9
200,10.0,-2.374528,-0.0904579,0.002340007,0,0,0,0,0,1.666663,7.092181,0.0904579,0,7.356238,-2.374528,2174.05,39012.7
205,10.25,-2.416394,-0.0916243,0.00237018,0,0,0,0,0,1.708529,7.270337,0.0916243,0,7.548178,-2.416394,2197.86,38547.4
210,10.5,-2.457861,-0.09290176,0.002403226,0,0,0,0,0,1.749996,7.44679,0.09290176,0,7.738647,-2.457861,2224.263,38158.8
215,10.75,-2.499594,-0.09456651,0.002446291,0,0,0,0,0,1.791729,7.624379,0.09456652,0,7.930708,-2.499594,2259.776,37937.8
220,11.0,-2.541461,-0.09507861,0.002459538,0,0,0,0,0,1.833596,7.802535,0.0950786,0,8.123754,-2.541461,2267.631,37272.3
225,11.25,-2.582794,-0.09690186,0.002506702,0,0,0,0,0,1.874929,7.978421,0.09690186,0,8.314708,-2.582794,2306.707,37149.6
230,11.5,-2.624794,-0.0973759,0.002518965,0,0,0,0,0,1.916929,8.157144,0.0973759,0,8.509115,-2.624794,2313.49,36513.4
235,11.75,-2.66626,-0.09878836,0.002555504,0,0,0,0,0,1.958395,8.333596,0.09878837,0,8.701425,-2.66626,2342.538,36258.8
240,12.0,-2.70786,-0.09966502,0.002578181,0,0,0,0,0,1.999995,8.510617,0.09966502,0,8.894725,-2.70786,2358.762,35819.6
245,12.25,-2.749593,-0.1008448,0.0026087,0,0,0,0,0,2.041728,8.688206,0.1008448,0,9.089022,-2.749593,2382.05,35502.8
250,12.5,-2.791193,-0.1015413,0.002626717,0,0,0,0,0,2.083328,8.865227,0.1015413,0,9.283075,-2.791193,2393.853,35034.2
255,12.75,-2.833193,-0.1028007,0.002659296,0,0,0,0,0,2.125328,9.04395,0.1028007,0,9.479376,-2.833193,2418.791,34767.8
260,13.0,-2.874526,-0.1036083,0.002680188,0,0,0,0,0,2.166662,9.219836,0.1036083,0,9.672938,-2.874526,2433.079,34372.5
265,13.25,-2.916259,-0.10485,0.002712309,0,0,0,0,0,2.208395,9.397424,0.10485,0,9.868753,-2.916259,2457.422,34127.1
270,13.5,-2.95826,-0.1056109,0.002731991,0,0,0,0,0,2.250395,9.576147,0.1056109,0,10.06621,-2.95826,2470.372,33733.2
275,13.75,-2.999326,-0.106733,0.002761018,0,0,0,0,0,2.291461,9.750898,0.106733,0,10.25965,-2.999326,2491.794,33480.6
280,14.0,-3.041193,-0.1077365,0.002786979,0,0,0,0,0,2.333328,9.929054,0.1077365,0,10.45725,-3.041193,2510.259,33189
285,14.25,-3.083193,-0.1086786,0.002811348,0,0,0,0,0,2.375328,10.10778,0.1086786,0,10.65588,-3.083193,2527.183,32887.3
290,14.5,-3.124392,-0.1095029,0.002832673,0,0,0,0,0,2.416527,10.2831,0.1095029,0,10.8511,-3.124392,2541.387,32571.8
295,14.75,-3.166259,-0.1106634,0.002862694,0,0,0,0,0,2.458394,10.46125,0.1106635,0,11.04987,-3.166259,2563.22,32356.4
300,15.0,-3.208125,-0.1114465,0.00288295,0,0,0,0,0,2.500261,10.63941,0.1114465,0,11.24904,-3.208125,2576.221,32039.7
305,15.25,-3.249725,-0.1124358,0.002908541,0,0,0,0,0,2.54186,10.81643,0.1124358,0,11.44733,-3.249725,2593.941,31795.1
310,15.5,-3.291325,-0.1132704,0.002930133,0,0,0,0,0,2.583461,10.99345,0.1132704,0,11.64602,-3.291325,2608.01,31515.3
315,15.75,-3.333058,-0.114046,0.002950196,0,0,0,0,0,2.625193,11.17104,0.114046,0,11.84574,-3.333058,2620.628,31226.7
320,16.0,-3.374792,-0.1146126,0.002964853,0,0,0,0,0,2.666927,11.34862,0.1146126,0,12.04586,-3.374792,2628.383,30890.8
325,16.25,-3.415992,-0.1161291,0.003004082,0,0,0,0,0,2.708127,11.52394,0.1161291,0,12.24382,-3.415992,2657.893,30823.3
330,16.5,-3.458125,-0.1165345,0.003014569,0,0,0,0,0,2.75026,11.70323,0.1165345,0,12.44667,-3.458125,2661.767,30457.1
335,16.75,-3.499591,-0.1176482,0.003043378,0,0,0,0,0,2.791727,11.87969,0.1176482,0,12.64671,-3.499591,2681.834,30291.4
340,17.0,-3.541325,-0.1182789,0.003059694,0,0,0,0,0,2.83346,12.05728,0.1182789,0,12.84844,-3.541325,2690.778,30005.3
345,17.25,-3.583191,-0.1194097,0.003088945,0,0,0,0,0,2.875326,12.23543,0.1194097,0,13.05123,-3.583191,2710.999,29851.1
350,17.5,-3.624524,-0.1201969,0.003109309,0,0,0,0,0,2.916659,12.41132,0.1201969,0,13.25184,-3.624524,2723.403,29622
355,17.75,-3.666391,-0.1209958,0.003129977,0,0,0,0,0,2.958526,12.58947,0.1209958,0,13.45545,-3.666391,2735.929,29396.9
360,18.0,-3.707724,-0.1218953,0.003153244,0,0,0,0,0,2.999859,12.76536,0.1218953,0,13.65687,-3.707724,2750.721,29207.4
365,18.25,-3.749724,-0.1230322,0.003182655,0,0,0,0,0,3.041859,12.94408,0.1230322,0,13.86195,-3.749724,2770.689,29072.8
370,18.5,-3.791324,-0.1239068,0.00320528,0,0,0,0,0,3.083459,13.1211,0.1239068,0,14.0655,-3.791324,2784.712,28884.5
375,18.75,-3.832791,-0.1244343,0.003218926,0,0,0,0,0,3.124926,13.29756,0.1244344,0,14.26881,-3.832791,2790.887,28622.5
380,19.0,-3.874924,-0.1255145,0.003246868,0,0,0,0,0,3.167059,13.47685,0.1255145,0,14.47581,-3.874924,2809.293,28486.9
385,19.25,-3.916257,-0.1263313,0.003267998,0,0,0,0,0,3.208392,13.65273,0.1263313,0,14.6793,-3.916257,2821.827,28302.9
390,19.5,-3.957991,-0.127355,0.003294479,0,0,0,0,0,3.250126,13.83032,0.127355,0,14.88518,-3.957991,2838.842,28165.9
395,19.75,-3.999857,-0.1282723,0.003318207,0,0,0,0,0,3.291992,14.00848,0.1282723,0,15.09215,-3.999857,2853.377,28008
400,20.0,-4.041323,-0.1291833,0.003341775,0,0,0,0,0,3.333458,14.18493,0.1291833,0,15.29755,-4.041323,2867.746,27856
405,20.25,-4.082657,-0.129914,0.003360675,0,0,0,0,0,3.374792,14.36082,0.129914,0,15.50273,-4.082657,2878.054,27670.5
410,20.5,-4.124923,-0.1311068,0.003391531,0,0,0,0,0,3.417058,14.54067,0.1311068,0,15.71296,-4.124923,2898.38,27579.1
415,20.75,-4.166257,-0.1319779,0.003414066,0,0,0,0,0,3.458392,14.71656,0.1319779,0,15.91899,-4.166257,2911.633,27430.5
420,21.0,-4.207856,-0.1329957,0.003440395,0,0,0,0,0,3.499992,14.89358,0.1329957,0,16.12677,-4.207856,2927.997,27313.5
425,21.25,-4.249723,-0.1340071,0.003466558,0,0,0,0,0,3.541858,15.07174,0.1340071,0,16.33632,-4.249723,2944.087,27195.9
430,21.5,-4.291456,-0.1348472,0.00348829,0,0,0,0,0,3.583591,15.24932,0.1348472,0,16.54565,-4.291456,2956.349,27047.7
435,21.75,-4.33279,-0.1356964,0.003510259,0,0,0,0,0,3.624925,15.42521,0.1356964,0,16.7534,-4.33279,2968.794,26907.7
440,22.0,-4.37479,-0.1366861,0.003535859,0,0,0,0,0,3.666924,15.60393,0.1366861,0,16.96494,-4.37479,2984.126,26793.5
445,22.25,-4.416389,-0.1377722,0.003563955,0,0,0,0,0,3.708524,15.78096,0.1377722,0,17.17491,-4.416389,3001.529,26703.5
450,22.5,-4.457856,-0.1386115,0.003585667,0,0,0,0,0,3.749991,15.95741,0.1386115,0,17.38465,-4.457856,3013.487,26569.1
455,22.75,-4.499589,-0.139628,0.003611962,0,0,0,0,0,3.791724,16.135,0.139628,0,17.59618,-4.499589,3029.172,26469.3
460,23.0,-4.541189,-0.1402613,0.003628345,0,0,0,0,0,3.833324,16.31202,0.1402613,0,17.80748,-4.541189,3036.489,26300.8
465,23.25,-4.583056,-0.1414896,0.00366012,0,0,0,0,0,3.875191,16.49017,0.1414896,0,18.02059,-4.583056,3056.56,26244.5
470,23.5,-4.624389,-0.1425025,0.003686322,0,0,0,0,0,3.916523,16.66606,0.1425025,0,18.23142,-4.624389,3071.957,26153.5
475,23.75,-4.666255,-0.1435837,0.003714289,0,0,0,0,0,3.95839,16.84421,0.1435837,0,18.44544,-4.666255,3088.647,26073.2
480,24.0,-4.708255,-0.1450352,0.003751839,0,0,0,0,0,4.000391,17.02294,0.1450352,0,18.6606,-4.708255,3113.166,26060.2
485,24.25,-4.749322,-0.1452722,0.003757969,0,0,0,0,0,4.041457,17.19769,0.1452722,0,18.87142,-4.749322,3111.685,25837.6
490,24.5,-4.791455,-0.1468952,0.003799953,0,0,0,0,0,4.08359,17.37698,0.1468952,0,19.08818,-4.791455,3139.636,25856.7
495,24.75,-4.833055,-0.1476176,0.003818642,0,0,0,0,0,4.12519,17.554,0.1476176,0,19.30267,-4.833055,3148.318,25721.8
500,25.0,-4.874388,-0.1484252,0.003839533,0,0,0,0,0,4.166523,17.72989,0.1484252,0,19.51623,-4.874388,3158.788,25606
505,25.25,-4.916388,-0.1503381,0.003889016,0,0,0,0,0,4.208523,17.90861,0.1503381,0,19.7337,-4.916388,3192.547,25677.1
510,25.5,-4.957988,-0.1510079,0.003906342,0,0,0,0,0,4.250123,18.08563,0.1510079,0,19.94958,-4.957988,3199.855,25539.1
515,25.75,-4.999588,-0.1527525,0.003951474,0,0,0,0,0,4.291723,18.26265,0.1527525,0,20.16591,-4.999588,3229.83,25583.7
520,26.0,-5.041321,-0.1533941,0.00396807,0,0,0,0,0,4.333456,18.44024,0.1533941,0,20.38342,-5.041321,3236.348,25443.8
525,26.25,-5.083054,-0.1550152,0.004010005,0,0,0,0,0,4.375189,18.61783,0.1550152,0,20.60139,-5.083054,3263.43,25467.4
530,26.5,-5.124654,-0.1558594,0.004031844,0,0,0,0,0,4.416789,18.79485,0.1558594,0,20.81915,-5.124654,3274.065,25364.9
535,26.75,-5.166121,-0.1566528,0.004052367,0,0,0,0,0,4.458256,18.9713,0.1566528,0,21.03668,-5.166121,3283.58,25256.9
540,27.0,-5.208121,-0.1581556,0.004091244,0,0,0,0,0,4.500256,19.15002,0.1581556,0,21.25749,-5.208121,3307.77,25261.2
545,27.25,-5.249454,-0.1596123,0.004128926,0,0,0,0,0,4.541589,19.32591,0.1596123,0,21.47527,-5.249454,3330.973,25261.9
550,27.5,-5.29132,-0.1602106,0.004144403,0,0,0,0,0,4.583456,19.50407,0.1602106,0,21.69635,-5.29132,3336.076,25125
555,27.75,-5.33292,-0.1618878,0.004187788,0,0,0,0,0,4.625055,19.68109,0.1618878,0,21.9165,-5.33292,3363.586,25159.6
560,28.0,-5.37452,-0.1630253,0.004217215,0,0,0,0,0,4.666655,19.85811,0.1630253,0,22.13714,-5.37452,3379.756,25110.6
565,28.25,-5.415987,-0.1645553,0.004256793,0,0,0,0,0,4.708122,20.03456,0.1645553,0,22.35757,-5.415987,3403.963,25123
570,28.5,-5.457987,-0.1655398,0.004282261,0,0,0,0,0,4.750122,20.21328,0.1655398,0,22.58132,-5.457987,3416.676,25049.8
575,28.75,-5.499853,-0.166895,0.004317317,0,0,0,0,0,4.791988,20.39144,0.166895,0,22.80485,-5.499853,3436.954,25034.3
580,29.0,-5.54132,-0.1683912,0.004356021,0,0,0,0,0,4.833455,20.56789,0.1683912,0,23.02675,-5.54132,3460.079,25042
585,29.25,-5.583053,-0.1695578,0.004386201,0,0,0,0,0,4.875188,20.74548,0.1695578,0,23.25058,-5.583053,3476.262,24999.6
590,29.5,-5.62492,-0.1712744,0.004430607,0,0,0,0,0,4.917055,20.92364,0.1712744,0,23.47562,-5.62492,3503.563,25037.7
595,29.75,-5.665986,-0.1720934,0.004451793,0,0,0,0,0,4.958121,21.09839,0.1720934,0,23.69685,-5.665986,3512.536,24949.1
600,30.0,-5.707986,-0.1739055,0.004498669,0,0,0,0,0,5.000121,21.27711,0.1739055,0,23.92362,-5.707986,3541.483,25000
605,30.25,-5.749853,-0.1743322,0.004509708,0,0,0,0,0,5.041987,21.45527,0.1743322,0,24.15019,-5.749853,3542.138,24853.3
610,30.5,-5.791053,-0.1769721,0.004577996,0,0,0,0,0,5.083188,21.63059,0.1769721,0,24.37365,-5.791053,3587.749,25025.1
615,30.75,-5.832919,-0.1780835,0.004606748,0,0,0,0,0,5.125054,21.80874,0.1780835,0,24.60123,-5.832919,3602.074,24976.6
620,31.0,-5.874786,-0.1795277,0.004644105,0,0,0,0,0,5.166921,21.9869,0.1795277,0,24.82934,-5.874786,3623.011,24975.1
625,31.25,-5.916385,-0.1812029,0.004687441,0,0,0,0,0,5.208521,22.16392,0.1812029,0,25.05651,-5.916385,3648.52,25006.8
630,31.5,-5.957852,-0.1823736,0.004717726,0,0,0,0,0,5.249987,22.34037,0.1823736,0,25.28346,-5.957852,3663.769,24969.6
635,31.75,-5.999719,-0.1839711,0.00475905,0,0,0,0,0,5.291854,22.51853,0.1839711,0,25.51313,-5.999719,3687.382,24989
640,32.0,-6.041319,-0.1851201,0.004788772,0,0,0,0,0,5.333453,22.69555,0.1851201,0,25.74186,-6.041319,3701.934,24949
645,32.25,-6.082785,-0.1871398,0.00484102,0,0,0,0,0,5.37492,22.872,0.1871398,0,25.97038,-6.082785,3733.782,25026.6
650,32.5,-6.124918,-0.1881857,0.004868076,0,0,0,0,0,5.417053,23.05129,0.1881857,0,26.20311,-6.124918,3745.922,24970.7
655,32.75,-6.166252,-0.1899107,0.0049127,0,0,0,0,0,5.458387,23.22718,0.1899107,0,26.43195,-6.166252,3771.618,25008.8
660,33.0,-6.207852,-0.1912803,0.004948128,0,0,0,0,0,5.499987,23.4042,0.1912803,0,26.66279,-6.207852,3790.058,24998.6
665,33.25,-6.249718,-0.1928596,0.004988983,0,0,0,0,0,5.541853,23.58235,0.1928596,0,26.89565,-6.249718,3812.463,25014.6
670,33.5,-6.291185,-0.1952323,0.005050359,0,0,0,0,0,5.583319,23.75881,0.1952323,0,27.12683,-6.291185,3850.454,25134.3
675,33.75,-6.333051,-0.1956624,0.005061487,0,0,0,0,0,5.625186,23.93696,0.1956624,0,27.36077,-6.333051,3849.921,25002.2
680,34.0,-6.374518,-0.197881,0.005118879,0,0,0,0,0,5.666653,24.11342,0.197881,0,27.59303,-6.374518,3884.542,25100.6
685,34.25,-6.416384,-0.1986955,0.005139948,0,0,0,0,0,5.708519,24.29157,0.1986955,0,27.82807,-6.416384,3891.374,25019.1
690,34.5,-6.457984,-0.200876,0.005196353,0,0,0,0,0,5.75012,24.46859,0.200876,0,28.06216,-6.457984,3924.879,25110.7
695,34.75,-6.499451,-0.2022584,0.005232115,0,0,0,0,0,5.791586,24.64505,0.2022584,0,28.29605,-6.499451,3942.658,25102.5
700,35.0,-6.541584,-0.2041273,0.005280462,0,0,0,0,0,5.833719,24.82434,0.2041273,0,28.53426,-6.541584,3969.622,25151.4
705,35.25,-6.582917,-0.205225,0.005308855,0,0,0,0,0,5.875052,25.00022,0.205225,0,28.7685,-6.582917,3981.63,25108.8
710,35.5,-6.624517,-0.2068898,0.005351921,0,0,0,0,0,5.916652,25.17724,0.2068898,0,29.00481,-6.624517,4004.455,25134.5
715,35.75,-6.666384,-0.2083946,0.005390848,0,0,0,0,0,5.958519,25.3554,0.2083946,0,29.2432,-6.666384,4023.977,25139.4
720,36.0,-6.70785,-0.2098581,0.005428707,0,0,0,0,0,5.999986,25.53185,0.2098581,0,29.47987,-6.70785,4042.658,25141
725,36.25,-6.749583,-0.2113935,0.005468425,0,0,0,0,0,6.041718,25.70944,0.2113935,0,29.71863,-6.749583,4062.523,25150
730,36.5,-6.791317,-0.2130233,0.005510587,0,0,0,0,0,6.083452,25.88703,0.2130233,0,29.95796,-6.791317,4084.06,25170.1
735,36.75,-6.83305,-0.2143423,0.005544706,0,0,0,0,0,6.125185,26.06462,0.2143423,0,30.19787,-6.83305,4099.499,25153.4
740,37.0,-6.874517,-0.2159438,0.005586134,0,0,0,0,0,6.166652,26.24107,0.2159438,0,30.43681,-6.874517,4120.272,25170.9
745,37.25,-6.916383,-0.2174473,0.005625029,0,0,0,0,0,6.208519,26.41923,0.2174473,0,30.67864,-6.916383,4138.94,25175.2
750,37.5,-6.958249,-0.218665,0.005656527,0,0,0,0,0,6.250385,26.59738,0.218665,0,30.92106,-6.958249,4152.039,25146.6
755,37.75,-6.99945,-0.2205172,0.005704443,0,0,0,0,0,6.291584,26.7727,0.2205172,0,31.16019,-6.99945,4177.21,25193.6
760,38.0,-7.04145,-0.2216107,0.005732728,0,0,0,0,0,6.333584,26.95142,0.2216107,0,31.40455,-7.04145,4187.676,25150.6
765,38.25,-7.08305,-0.223057,0.005770143,0,0,0,0,0,6.375184,27.12844,0.223057,0,31.64718,-7.08305,4204.793,25149.6
770,38.5,-7.124649,-0.2243451,0.005803463,0,0,0,0,0,6.416785,27.30547,0.2243451,0,31.8904,-7.124649,4218.8,25130.8
775,38.75,-7.166382,-0.2258332,0.005841957,0,0,0,0,0,6.458518,27.48305,0.2258332,0,32.13499,-7.166382,4236.409,25134
780,39.0,-7.207982,-0.2273053,0.00588004,0,0,0,0,0,6.500117,27.66007,0.2273053,0,32.3794,-7.207982,4253.617,25136
785,39.25,-7.249716,-0.2287185,0.005916596,0,0,0,0,0,6.541851,27.83766,0.2287185,0,32.62519,-7.249716,4269.554,25130.9
790,39.5,-7.291049,-0.2304585,0.005961609,0,0,0,0,0,6.583184,28.01355,0.2304585,0,32.86922,-7.291049,4291.551,25163.1
795,39.75,-7.332915,-0.2317652,0.00599541,0,0,0,0,0,6.62505,28.1917,0.2317652,0,33.11702,-7.332915,4305.202,25145.9
800,40.0,-7.374782,-0.2332746,0.006034456,0,0,0,0,0,6.666917,28.36986,0.2332746,0,33.36542,-7.374782,4322.489,25150.7
805,40.25,-7.416115,-0.2347006,0.006071344,0,0,0,0,0,6.708251,28.54575,0.2347006,0,33.61127,-7.416115,4338.234,25148.5
810,40.5,-7.458249,-0.236234,0.006111011,0,0,0,0,0,6.750383,28.72504,0.236234,0,33.86251,-7.458249,4355.621,25154.8
815,40.75,-7.499848,-0.2379727,0.006155988,0,0,0,0,0,6.791984,28.90206,0.2379726,0,34.11118,-7.499848,4376.78,25184.7
820,41.0,-7.541182,-0.2393875,0.006192587,0,0,0,0,0,6.833317,29.07794,0.2393875,0,34.35887,-7.541182,4391.91,25181.2
825,41.25,-7.583181,-0.2412181,0.006239942,0,0,0,0,0,6.875317,29.25667,0.2412181,0,34.61119,-7.583181,4414.343,25218.8
830,41.5,-7.624648,-0.2428058,0.006281015,0,0,0,0,0,6.916783,29.43312,0.2428059,0,34.86093,-7.624648,4432.316,25232.6
835,41.75,-7.666381,-0.2445581,0.006326342,0,0,0,0,0,6.958516,29.61071,0.2445581,0,35.1129,-7.666381,4453.068,25262.3
840,42.0,-7.707981,-0.2459552,0.006362485,0,0,0,0,0,7.000116,29.78773,0.2459552,0,35.36471,-7.707981,4467.245,25255.6
845,42.25,-7.749848,-0.2477464,0.00640882,0,0,0,0,0,7.041982,29.96588,0.2477464,0,35.61877,-7.749848,4488.361,25288.3
850,42.5,-7.791314,-0.2497025,0.00645942,0,0,0,0,0,7.083449,30.14234,0.2497025,0,35.87104,-7.791314,4512.4,25338.8
855,42.75,-7.832781,-0.2514374,0.006504301,0,0,0,0,0,7.124917,30.31879,0.2514375,0,36.12395,-7.832781,4532.276,25366.3
860,43.0,-7.874914,-0.2534443,0.006556216,0,0,0,0,0,7.16705,30.49808,0.2534443,0,36.38159,-7.874914,4556.696,25418.5
865,43.25,-7.916114,-0.2554173,0.006607253,0,0,0,0,0,7.208249,30.6734,0.2554173,0,36.63415,-7.916114,4580.584,25469.9
870,43.5,-7.957981,-0.2570723,0.006650066,0,0,0,0,0,7.250116,30.85156,0.2570723,0,36.89146,-7.957981,4598.417,25486.9
875,43.75,-7.999714,-0.2595124,0.006713187,0,0,0,0,0,7.291848,31.02914,0.2595124,0,37.14861,-7.999714,4630.143,25581.6
880,44.0,-8.041181,-0.2613836,0.006761592,0,0,0,0,0,7.333316,31.2056,0.2613836,0,37.40478,-8.041181,4651.597,25620.4
885,44.25,-8.083047,-0.2636259,0.006819597,0,0,0,0,0,7.375183,31.38375,0.2636259,0,37.66409,-8.083047,4679.351,25693.5
890,44.5,-8.124647,-0.2652387,0.006861318,0,0,0,0,0,7.416782,31.56077,0.2652387,0,37.92241,-8.124647,4695.833,25705.7
895,44.75,-8.166513,-0.2673451,0.006915808,0,0,0,0,0,7.458649,31.73893,0.2673451,0,38.18306,-8.166513,4720.804,25764.4
900,45.0,-8.207981,-0.2692793,0.006965842,0,0,0,0,0,7.500116,31.91539,0.2692793,0,38.44189,-8.207981,4742.666,25807.3
905,45.25,-8.24958,-0.2710814,0.007012459,0,0,0,0,0,7.541715,32.0924,0.2710814,0,38.70223,-8.24958,4761.992,25836.7
910,45.5,-8.29158,-0.2735165,0.007075453,0,0,0,0,0,7.583714,32.27113,0.2735165,0,38.96576,-8.29158,4792.125,25924.4
915,45.75,-8.33278,-0.2749901,0.007113572,0,0,0,0,0,7.624915,32.44645,0.2749901,0,39.22495,-8.33278,4805.471,25923.2
920,46.0,-8.374646,-0.2774517,0.007177249,0,0,0,0,0,7.666781,32.6246,0.2774517,0,39.48903,-8.374646,4835.7,26012.5
925,46.25,-8.416513,-0.2788975,0.007214652,0,0,0,0,0,7.708648,32.80276,0.2788976,0,39.7538,-8.416513,4848.047,26006
930,46.5,-8.457846,-0.2815517,0.007283311,0,0,0,0,0,7.749981,32.97864,0.2815517,0,40.01588,-8.457846,4881.374,26113.5
935,46.75,-8.499713,-0.2829994,0.007320761,0,0,0,0,0,7.791848,33.1568,0.2829994,0,40.28206,-8.499713,4893.431,26106.7
940,47.0,-8.541313,-0.2856713,0.007389879,0,0,0,0,0,7.833448,33.33382,0.2856713,0,40.54724,-8.541313,4926.55,26213.3
945,47.25,-8.582912,-0.2876664,0.007441489,0,0,0,0,0,7.875048,33.51084,0.2876664,0,40.81313,-8.582912,4947.784,26256.9
950,47.5,-8.62438,-0.2901552,0.007505869,0,0,0,0,0,7.916515,33.6873,0.2901551,0,41.07887,-8.62438,4977.345,26345.3
955,47.75,-8.666245,-0.2926194,0.007569616,0,0,0,0,0,7.958381,33.86545,0.2926194,0,41.34789,-8.666245,5006.132,26429.3
960,48.0,-8.707979,-0.2941657,0.007609615,0,0,0,0,0,8.000114,34.04304,0.2941657,0,41.61678,-8.707979,5019.071,26430.4
965,48.25,-8.749712,-0.2968605,0.007679327,0,0,0,0,0,8.041847,34.22063,0.2968605,0,41.88639,-8.749712,5051.413,26534.1
970,48.5,-8.791579,-0.2986728,0.007726207,0,0,0,0,0,8.083714,34.39878,0.2986728,0,42.15759,-8.791579,5068.486,26557.8
975,48.75,-8.833178,-0.3009223,0.007784398,0,0,0,0,0,8.125314,34.5758,0.3009223,0,42.4278,-8.833178,5092.88,26620.8
980,49.0,-8.874645,-0.3032166,0.00784375,0,0,0,0,0,8.16678,34.75226,0.3032166,0,42.69788,-8.874645,5117.87,26687.6
985,49.25,-8.916512,-0.3054219,0.007900795,0,0,0,0,0,8.208647,34.93041,0.3054219,0,42.97129,-8.916512,5141.015,26744.6
990,49.5,-8.957845,-0.3080546,0.0079689,0,0,0,0,0,8.24998,35.1063,0.3080546,0,43.24196,-8.957845,5171.314,26840
995,49.75,-8.999712,-0.3106548,0.008036163,0,0,0,0,0,8.291847,35.28445,0.3106548,0,43.51688,-8.999712,5200.647,26929.9
1000,50.0,-9.041311,-0.3127667,0.008090795,0,0,0,0,0,8.333447,35.46148,0.3127667,0,43.79078,-9.041311,5221.68,26977.6
1005,50.25,-9.083045,-0.3156223,0.008164664,0,0,0,0,0,8.37518,35.63906,0.3156223,0,44.06633,-9.083045,5254.854,27088.2
1010,50.5,-9.124778,-0.3171327,0.008203737,0,0,0,0,0,8.416912,35.81665,0.3171327,0,44.34263,-9.124778,5265.434,27082.9
1015,50.75,-9.166111,-0.3204827,0.008290397,0,0,0,0,0,8.458246,35.99254,0.3204827,0,44.61705,-9.166111,5306.473,27235.3
1020,51.0,-9.208244,-0.3221863,0.008334465,0,0,0,0,0,8.500379,36.17183,0.3221863,0,44.89755,-9.208244,5319.737,27244.3
1025,51.25,-9.249577,-0.3250907,0.008409598,0,0,0,0,0,8.541713,36.34771,0.3250907,0,45.17349,-9.249577,5352.901,27356.9
1030,51.5,-9.291444,-0.3269784,0.008458429,0,0,0,0,0,8.583579,36.52587,0.3269784,0,45.45377,-9.291444,5368.914,27381.5
1035,51.75,-9.333177,-0.3295046,0.00852378,0,0,0,0,0,8.625313,36.70346,0.3295046,0,45.73395,-9.333177,5395.258,27459.6
1040,52.0,-9.37451,-0.3320835,0.008590491,0,0,0,0,0,8.666645,36.87934,0.3320835,0,46.0122,-9.37451,5422.375,27542.5
1045,52.25,-9.416377,-0.334043,0.008641182,0,0,0,0,0,8.708512,37.0575,0.3340431,0,46.29486,-9.416377,5438.976,27571.8
1050,52.5,-9.457977,-0.3365559,0.008706186,0,0,0,0,0,8.750112,37.23452,0.3365559,0,46.57649,-9.457977,5464.479,27647.2
1055,52.75,-9.49971,-0.3385589,0.008757999,0,0,0,0,0,8.791844,37.41211,0.3385589,0,46.85983,-9.49971,5481.447,27679.7
1060,53.0,-9.541177,-0.3410829,0.00882329,0,0,0,0,0,8.833312,37.58856,0.3410829,0,47.14217,-9.541177,5506.743,27755.2
1065,53.25,-9.583044,-0.3435014,0.008885854,0,0,0,0,0,8.875179,37.76672,0.3435014,0,47.42803,-9.583044,5529.959,27820.1
1070,53.5,-9.624776,-0.3466052,0.008966144,0,0,0,0,0,8.916912,37.94431,0.3466052,0,47.71379,-9.624776,5564.003,27940.1
1075,53.75,-9.666109,-0.3479433,0.009000759,0,0,0,0,0,8.958244,38.12019,0.3479433,0,47.99762,-9.666109,5569.653,27918.6
1080,54.0,-9.708109,-0.349657,0.00904509,0,0,0,0,0,9.000244,38.29891,0.349657,0,48.28686,-9.708109,5580.918,27925.1
1085,54.25,-9.74971,-0.3536281,0.009147816,0,0,0,0,0,9.041844,38.47593,0.3536281,0,48.57417,-9.74971,5628.109,28112.3
1090,54.5,-9.791176,-0.3536175,0.009147543,0,0,0,0,0,9.083311,38.65239,0.3536175,0,48.86139,-9.791176,5611.799,27983.2
1095,54.75,-9.833043,-0.3585359,0.009274774,0,0,0,0,0,9.125177,38.83054,0.3585359,0,49.15222,-9.833043,5673.329,28242.2
1100,55.0,-9.874643,-0.3590255,0.009287439,0,0,0,0,0,9.166778,39.00756,0.3590255,0,49.44204,-9.874643,5664.635,28152.4
1105,55.25,-9.91651,-0.3634059,0.009400753,0,0,0,0,0,9.208645,39.18572,0.3634059,0,49.73456,-9.91651,5717.0,28366.4
1110,55.5,-9.957709,-0.3638831,0.009413098,0,0,0,0,0,9.249844,39.36104,0.3638831,0,50.02325,-9.957709,5708.005,28277.1
1115,55.75,-9.999576,-0.3673485,0.009502742,0,0,0,0,0,9.291711,39.5392,0.3673485,0,50.31749,-9.999576,5745.434,28417.8
1120,56.0,-10.04144,-0.370171,0.009575756,0,0,0,0,0,9.333578,39.71735,0.370171,0,50.61259,-10.04144,5772.519,28507.7
1125,56.25,-10.08278,-0.3719899,0.009622808,0,0,0,0,0,9.374911,39.89324,0.3719899,0,50.90478,-10.08278,5783.958,28521.4
1130,56.5,-10.12478,-0.3738515,0.009670965,0,0,0,0,0,9.416911,40.07196,0.3738515,0,51.20257,-10.12478,5795.62,28536.3
1135,56.75,-10.16651,-0.3774421,0.009763848,0,0,0,0,0,9.458644,40.24955,0.3774421,0,51.49935,-10.16651,5833.943,28683.3
1140,57.0,-10.20798,-0.3785011,0.009791243,0,0,0,0,0,9.500111,40.426,0.3785011,0,51.7951,-10.20798,5833.035,28638.2
1145,57.25,-10.24971,-0.3820197,0.009882264,0,0,0,0,0,9.541844,40.60359,0.3820197,0,52.09364,-10.24971,5869.71,28778
1150,57.5,-10.29144,-0.3838686,0.009930092,0,0,0,0,0,9.583576,40.78118,0.3838686,0,52.39307,-10.29144,5880.483,28791.4
1155,57.75,-10.33304,-0.3867396,0.01000436,0,0,0,0,0,9.625176,40.9582,0.3867396,0,52.69245,-10.33304,5906.754,28881.3
1160,58.0,-10.37464,-0.3892608,0.01006958,0,0,0,0,0,9.666776,41.13522,0.3892609,0,52.99271,-10.37464,5927.437,28944.5
1165,58.25,-10.41637,-0.3917597,0.01013422,0,0,0,0,0,9.708508,41.31281,0.3917597,0,53.29486,-10.41637,5947.491,29005.1
1170,58.5,-10.45784,-0.3944706,0.01020435,0,0,0,0,0,9.749977,41.48926,0.3944706,0,53.59599,-10.45784,5970.64,29081.6
1175,58.75,-10.49957,-0.397066,0.01027149,0,0,0,0,0,9.79171,41.66685,0.397066,0,53.89996,-10.49957,5991.684,29148.2
1180,59.0,-10.54144,-0.4000155,0.01034779,0,0,0,0,0,9.833576,41.84501,0.4000155,0,54.20584,-10.54144,6017.755,29239.7
1185,59.25,-10.58277,-0.4022918,0.01040667,0,0,0,0,0,9.874909,42.02089,0.4022918,0,54.50874,-10.58277,6033.695,29283
1190,59.5,-10.62464,-0.4050587,0.01047825,0,0,0,0,0,9.916776,42.19905,0.4050587,0,54.81649,-10.62464,6056.528,29359.9
1195,59.75,-10.66637,-0.4078513,0.01055049,0,0,0,0,0,9.958509,42.37664,0.4078513,0,55.12421,-10.66637,6079.546,29438.4
1200,60.0,-10.70784,-0.4103872,0.01061609,0,0,0,0,0,9.999974,42.55309,0.4103872,0,55.43089,-10.70784,6098.616,29498.7
1205,60.25,-10.74971,-0.4131512,0.01068759,0,0,0,0,0,10.04184,42.73124,0.4131512,0,55.7415,-10.74971,6120.649,29573.5
1210,60.5,-10.79131,-0.4157201,0.01075404,0,0,0,0,0,10.08344,42.90826,0.4157201,0,56.05108,-10.79131,6139.669,29634.6
1215,60.75,-10.83317,-0.4185551,0.01082738,0,0,0,0,0,10.12531,43.08642,0.4185551,0,56.36362,-10.83317,6162.248,29713.3
1220,61.0,-10.87464,-0.4213054,0.01089853,0,0,0,0,0,10.16678,43.26287,0.4213054,0,56.67414,-10.87464,6183.51,29786.6
1225,61.25,-10.91651,-0.4240376,0.0109692,0,0,0,0,0,10.20864,43.44103,0.4240376,0,56.98864,-10.91651,6204.068,29856.8
1230,61.5,-10.95824,-0.4269729,0.01104514,0,0,0,0,0,10.25038,43.61862,0.4269729,0,57.30312,-10.95824,6227.4,29941.1
1235,61.75,-10.99944,-0.4296245,0.01111373,0,0,0,0,0,10.29158,43.79394,0.4296245,0,57.61456,-10.99944,6246.588,30006.4
1240,62.0,-11.04131,-0.4323712,0.01118478,0,0,0,0,0,10.33344,43.97209,0.4323712,0,57.93202,-11.04131,6266.598,30075.9
1245,62.25,-11.08291,-0.4355325,0.01126656,0,0,0,0,0,10.37504,44.14911,0.4355325,0,58.24848,-11.08291,6292.473,30174.4
1250,62.5,-11.12451,-0.4381342,0.01133386,0,0,0,0,0,10.41664,44.32613,0.4381343,0,58.56594,-11.12451,6309.998,30233.4
1255,62.75,-11.16637,-0.4412269,0.01141386,0,0,0,0,0,10.45851,44.50429,0.4412269,0,58.88645,-11.16637,6334.204,30324.9
1260,63.0,-11.20811,-0.4438825,0.01148256,0,0,0,0,0,10.50024,44.68188,0.4438825,0,59.20696,-11.20811,6351.936,30386.2
1265,63.25,-11.24984,-0.4464458,0.01154887,0,0,0,0,0,10.54198,44.85947,0.4464458,0,59.52851,-11.24984,6368.107,30440.6
1270,63.5,-11.29131,-0.4493564,0.01162416,0,0,0,0,0,10.58344,45.03592,0.4493563,0,59.84903,-11.29131,6389.113,30519.1
1275,63.75,-11.33317,-0.4521586,0.01169665,0,0,0,0,0,10.62531,45.21407,0.4521586,0,60.17369,-11.33317,6408.118,30588.4
1280,64.0,-11.37464,-0.4547237,0.011763,0,0,0,0,0,10.66677,45.39053,0.4547237,0,60.49629,-11.37464,6423.714,30642.3
1285,64.25,-11.41637,-0.4573625,0.01183126,0,0,0,0,0,10.70851,45.56812,0.4573624,0,60.82201,-11.41637,6439.981,30700
1290,64.5,-11.45824,-0.4601725,0.01190396,0,0,0,0,0,10.75037,45.74627,0.4601725,0,61.14984,-11.45824,6458.341,30768.4
1295,64.75,-11.49957,-0.4629005,0.01197453,0,0,0,0,0,10.79171,45.92216,0.4629005,0,61.47456,-11.49957,6475.565,30832.2
1300,65.0,-11.54117,-0.4656033,0.01204444,0,0,0,0,0,10.83331,46.09918,0.4656033,0,61.80245,-11.54117,6492.054,30893.1
1305,65.25,-11.58304,-0.4685325,0.01212022,0,0,0,0,0,10.87517,46.27734,0.4685325,0,62.13352,-11.58304,6511.304,30967.8
1310,65.5,-11.6245,-0.4713685,0.01219358,0,0,0,0,0,10.91664,46.45378,0.4713685,0,62.4625,-11.6245,6529.201,31036.9
1315,65.75,-11.6665,-0.4741989,0.0122668,0,0,0,0,0,10.95864,46.63251,0.4741988,0,62.79684,-11.6665,6546.482,31103.6
1320,66.0,-11.70784,-0.477239,0.01234544,0,0,0,0,0,10.99997,46.8084,0.477239,0,63.12696,-11.70784,6566.738,31185.4
1325,66.25,-11.7497,-0.4803255,0.01242528,0,0,0,0,0,11.04184,46.98655,0.4803255,0,63.46245,-11.7497,6587.072,31268.1
1330,66.5,-11.79144,-0.4829212,0.01249243,0,0,0,0,0,11.08357,47.16414,0.4829212,0,63.798,-11.79144,6600.484,31318.7
1335,66.75,-11.8329,-0.4863723,0.01258171,0,0,0,0,0,11.12504,47.34059,0.4863723,0,64.13253,-11.8329,6625.452,31424.9
1340,67.0,-11.87477,-0.4890393,0.0126507,0,0,0,0,0,11.16691,47.51875,0.4890392,0,64.47142,-11.87477,6639.243,31478.8
1345,67.25,-11.91624,-0.4922547,0.01273387,0,0,0,0,0,11.20837,47.69521,0.4922547,0,64.80821,-11.91624,6660.427,31568.6
1350,67.5,-11.95784,-0.4945249,0.0127926,0,0,0,0,0,11.24997,47.87222,0.4945249,0,65.14722,-11.95784,6668.499,31596.9
1355,67.75,-11.99984,-0.4978829,0.01287947,0,0,0,0,0,11.29197,48.05095,0.4978829,0,65.49067,-11.99984,6690.761,31693.1
1360,68.0,-12.04117,-0.500654,0.01295115,0,0,0,0,0,11.33331,48.22683,0.500654,0,65.82982,-12.04117,6705.222,31753.3
1365,68.25,-12.08304,-0.503303,0.01301968,0,0,0,0,0,11.37517,48.40499,0.503303,0,66.17452,-12.08304,6717.504,31803.8
1370,68.5,-12.12477,-0.5064577,0.01310128,0,0,0,0,0,11.41691,48.58258,0.5064577,0,66.51931,-12.12477,6736.343,31886.1
1375,68.75,-12.16637,-0.5094501,0.01317869,0,0,0,0,0,11.45851,48.7596,0.5094501,0,66.86419,-12.16637,6752.815,31958.1
1380,69.0,-12.20784,-0.5124752,0.01325695,0,0,0,0,0,11.49997,48.93605,0.5124753,0,67.20914,-12.20784,6769.521,32032
1385,69.25,-12.24957,-0.5155423,0.01333629,0,0,0,0,0,11.54171,49.11364,0.5155423,0,67.55753,-12.24957,6786.352,32107.1
1390,69.5,-12.29144,-0.5187527,0.01341934,0,0,0,0,0,11.58357,49.2918,0.5187528,0,67.90825,-12.29144,6804.705,32190.3
1395,69.75,-12.3329,-0.5218448,0.01349933,0,0,0,0,0,11.62504,49.46825,0.5218448,0,68.25682,-12.3329,6821.446,32266.7
1400,70.0,-12.3749,-0.5248839,0.01357794,0,0,0,0,0,11.66704,49.64697,0.5248839,0,68.61114,-12.3749,6836.905,32337.8
1405,70.25,-12.41637,-0.5280786,0.01366058,0,0,0,0,0,11.7085,49.82342,0.5280786,0,68.96218,-12.41637,6854.414,32419.4
1410,70.5,-12.45797,-0.5308847,0.01373317,0,0,0,0,0,11.7501,50.00045,0.5308847,0,69.31561,-12.45797,6866.525,32476.3
1415,70.75,-12.4997,-0.5341226,0.01381693,0,0,0,0,0,11.79184,50.17804,0.5341226,0,69.67142,-12.4997,6883.867,32558.7
1420,71.0,-12.54117,-0.5370409,0.01389243,0,0,0,0,0,11.8333,50.35449,0.5370409,0,70.02622,-12.54117,6896.966,32621.9
1425,71.25,-12.58317,-0.5404874,0.01398158,0,0,0,0,0,11.8753,50.53321,0.5404873,0,70.38687,-12.58317,6916.239,32715.1
1430,71.5,-12.6245,-0.5436145,0.01406247,0,0,0,0,0,11.91664,50.7091,0.5436145,0,70.74306,-12.6245,6931.52,32790.2
1435,71.75,-12.66637,-0.5471852,0.01415484,0,0,0,0,0,11.9585,50.88725,0.5471852,0,71.10515,-12.66637,6951.832,32890.1
1440,72.0,-12.70797,-0.5505404,0.01424163,0,0,0,0,0,12.0001,51.06427,0.5505403,0,71.46625,-12.70797,6969.247,32977
1445,72.25,-12.74944,-0.5539282,0.01432927,0,0,0,0,0,12.04157,51.24073,0.5539281,0,71.82748,-12.74944,6986.849,33065.7
1450,72.5,-12.79157,-0.557314,0.01441686,0,0,0,0,0,12.0837,51.42001,0.557314,0,72.19585,-12.79157,7003.709,33151.8
1455,72.75,-12.83317,-0.5614325,0.0145234,0,0,0,0,0,12.1253,51.59704,0.5614325,0,72.56092,-12.83317,7029.755,33282.2
1460,73.0,-12.87437,-0.5647014,0.01460796,0,0,0,0,0,12.1665,51.77235,0.5647014,0,72.92377,-12.87437,7045.075,33362.6
1465,73.25,-12.9165,-0.5694922,0.01473189,0,0,0,0,0,12.20864,51.95164,0.5694922,0,73.29623,-12.9165,7078.43,33529.6
1470,73.5,-12.95797,-0.5723387,0.01480553,0,0,0,0,0,12.2501,52.1281,0.5723388,0,73.66415,-12.95797,7087.686,33583.1
1475,73.75,-12.99983,-0.5763365,0.01490894,0,0,0,0,0,12.29197,52.30626,0.5763365,0,74.03699,-12.99983,7110.633,33702.5
1480,74.0,-13.04143,-0.5800011,0.01500374,0,0,0,0,0,12.33357,52.48328,0.5800011,0,74.40885,-13.04143,7129.285,33802.4
1485,74.25,-13.0829,-0.5833988,0.01509163,0,0,0,0,0,12.37504,52.65973,0.5833988,0,74.78089,-13.0829,7144.419,33886.5
1490,74.5,-13.1245,-0.5874027,0.01519521,0,0,0,0,0,12.41664,52.83675,0.5874027,0,75.15552,-13.1245,7166.553,34004.7
1495,74.75,-13.16623,-0.5908848,0.01528528,0,0,0,0,0,12.45837,53.01434,0.5908848,0,75.53278,-13.16623,7181.891,34091.7
1500,75.0,-13.2081,-0.5948333,0.01538743,0,0,0,0,0,12.50024,53.1925,0.5948333,0,75.91267,-13.2081,7202.47,34204.6
1505,75.25,-13.24943,-0.5995451,0.01550931,0,0,0,0,0,12.54157,53.36838,0.5995451,0,76.28914,-13.24943,7232.243,34361.9
1510,75.5,-13.29117,-0.602947,0.01559731,0,0,0,0,0,12.5833,53.54597,0.602947,0,76.6707,-13.29117,7245.581,34442.3
1515,75.75,-13.33303,-0.60781,0.01572311,0,0,0,0,0,12.62517,53.72412,0.60781,0,77.05493,-13.33303,7276.008,34604.9
1520,76.0,-13.37463,-0.6118983,0.01582887,0,0,0,0,0,12.66677,53.90115,0.6118982,0,77.43821,-13.37463,7296.927,34723.3
1525,76.25,-13.41637,-0.6161282,0.01593829,0,0,0,0,0,12.7085,54.07874,0.6161282,0,77.82419,-13.41637,7319.065,34848.5
1530,76.5,-13.45783,-0.6205712,0.01605323,0,0,0,0,0,12.74997,54.25519,0.6205713,0,78.20918,-13.45783,7343.518,34985.6
1535,76.75,-13.49983,-0.6252851,0.01617517,0,0,0,0,0,12.79197,54.43391,0.6252851,0,78.60064,-13.49983,7370.391,35135.6
1540,77.0,-13.5413,-0.6295484,0.01628545,0,0,0,0,0,12.83344,54.61036,0.6295484,0,78.98863,-13.5413,7391.908,35260.9
1545,77.25,-13.58303,-0.6340838,0.01640278,0,0,0,0,0,12.87517,54.78795,0.6340838,0,79.38066,-13.58303,7416.031,35399.8
1550,77.5,-13.62503,-0.6386754,0.01652155,0,0,0,0,0,12.91717,54.96667,0.6386754,0,79.77674,-13.62503,7440.205,35540.2
1555,77.75,-13.6661,-0.6429634,0.01663248,0,0,0,0,0,12.95823,55.14143,0.6429633,0,80.16554,-13.6661,7461.092,35665.5
1560,78.0,-13.70783,-0.6471254,0.01674014,0,0,0,0,0,12.99997,55.31902,0.6471254,0,80.56222,-13.70783,7479.66,35781.1
1565,78.25,-13.74983,-0.6522838,0.01687358,0,0,0,0,0,13.04197,55.49774,0.6522838,0,80.96302,-13.74983,7509.126,35950.1
1570,78.5,-13.79103,-0.6563987,0.01698003,0,0,0,0,0,13.08317,55.67306,0.6563987,0,81.35775,-13.79103,7526.727,36063
1575,78.75,-13.83317,-0.6610584,0.01710057,0,0,0,0,0,13.1253,55.85234,0.6610584,0,81.76304,-13.83317,7549.5,36202.4
1580,79.0,-13.87463,-0.6660832,0.01723055,0,0,0,0,0,13.16677,56.0288,0.6660832,0,82.16354,-13.87463,7576.479,36362.7
1585,79.25,-13.91637,-0.6701416,0.01733554,0,0,0,0,0,13.2085,56.20639,0.6701416,0,82.56822,-13.91637,7591.857,36468.7
1590,79.5,-13.95783,-0.6744375,0.01744667,0,0,0,0,0,13.24997,56.38284,0.6744375,0,82.97196,-13.95783,7609.739,36587.6
1595,79.75,-13.99983,-0.679491,0.01757739,0,0,0,0,0,13.29197,56.56157,0.679491,0,83.38256,-13.99983,7635.343,36745.3
1600,80.0,-14.04143,-0.6840576,0.01769552,0,0,0,0,0,13.33357,56.73858,0.6840577,0,83.7909,-14.04143,7655.334,36876.8
1605,80.25,-14.0829,-0.6889389,0.01782179,0,0,0,0,0,13.37503,56.91504,0.6889389,0,84.19962,-14.0829,7678.512,37024.8
1610,80.50001,-14.12477,-0.6932949,0.01793448,0,0,0,0,0,13.4169,57.09319,0.6932949,0,84.61397,-14.12477,7695.111,37142.7
1615,80.75001,-14.16623,-0.6987187,0.01807478,0,0,0,0,0,13.45837,57.26965,0.6987187,0,85.02607,-14.16623,7723.418,37317.9
1620,81.00001,-14.20797,-0.7024499,0.0181713,0,0,0,0,0,13.5001,57.44724,0.7024499,0,85.44254,-14.20797,7732.391,37401.2
1625,81.25001,-14.2497,-0.7087039,0.01833308,0,0,0,0,0,13.54183,57.62482,0.7087039,0,85.86075,-14.2497,7768.677,37617.9
1630,81.50001,-14.2913,-0.7132506,0.0184507,0,0,0,0,0,13.58343,57.80185,0.7132506,0,86.27937,-14.2913,7785.854,37743.3
1635,81.75001,-14.33303,-0.718669,0.01859087,0,0,0,0,0,13.62517,57.97943,0.718669,0,86.70111,-14.33303,7811.987,37913.5
1640,82.00001,-14.37463,-0.7238609,0.01872517,0,0,0,0,0,13.66677,58.15645,0.7238609,0,87.12326,-14.37463,7835.276,38071.2
1645,82.25001,-14.41636,-0.7295715,0.01887289,0,0,0,0,0,13.7085,58.33404,0.7295715,0,87.54858,-14.41636,7863.572,38254.7
1650,82.50001,-14.4581,-0.7345376,0.01900136,0,0,0,0,0,13.75023,58.51163,0.7345376,0,87.97571,-14.4581,7883.355,38398.2
1655,82.75001,-14.49943,-0.7395523,0.01913108,0,0,0,0,0,13.79157,58.68752,0.7395523,0,88.40055,-14.49943,7903.526,38544.5
1660,83.00001,-14.54143,-0.7453576,0.01928126,0,0,0,0,0,13.83357,58.86624,0.7453576,0,88.8341,-14.54143,7931.106,38729.1
1665,83.25001,-14.58303,-0.7503327,0.01940996,0,0,0,0,0,13.87517,59.04326,0.7503328,0,89.26538,-14.58303,7949.686,38870.7
1670,83.50001,-14.62463,-0.7556064,0.01954638,0,0,0,0,0,13.91677,59.22028,0.7556064,0,89.69852,-14.62463,7970.959,39026.9
1675,83.75001,-14.6665,-0.7611278,0.01968921,0,0,0,0,0,13.95863,59.39844,0.7611278,0,90.13636,-14.6665,7994.126,39194.2
1680,84.00001,-14.70796,-0.7666795,0.01983282,0,0,0,0,0,14.0001,59.57489,0.7666795,0,90.57191,-14.70796,8017.441,39363.2
1685,84.25001,-14.74956,-0.772832,0.01999198,0,0,0,0,0,14.0417,59.75191,0.772832,0,91.01077,-14.74956,8046.389,39561.5
1690,84.50001,-14.79116,-0.7783852,0.02013563,0,0,0,0,0,14.0833,59.92893,0.7783852,0,91.45156,-14.79116,8068.563,39728.1
1695,84.75001,-14.83303,-0.7840793,0.02028293,0,0,0,0,0,14.12517,60.10709,0.7840794,0,91.89715,-14.83303,8091.452,39900.1
1700,85.00001,-14.8745,-0.7911585,0.02046606,0,0,0,0,0,14.16663,60.28354,0.7911585,0,92.34046,-14.8745,8128.393,40142.5
1705,85.25001,-14.9165,-0.7964049,0.02060178,0,0,0,0,0,14.20863,60.46227,0.796405,0,92.79147,-14.9165,8145.475,40289.2
1710,85.50001,-14.95823,-0.8034208,0.02078326,0,0,0,0,0,14.25037,60.63985,0.8034208,0,93.24163,-14.95823,8180.323,40525.1
1715,85.75001,-14.99956,-0.8076957,0.02089385,0,0,0,0,0,14.2917,60.81573,0.8076957,0,93.6895,-14.99956,8187.101,40622.9
1720,86.00001,-15.04143,-0.815358,0.02109206,0,0,0,0,0,14.33356,60.99389,0.815358,0,94.1452,-15.04143,8227.192,40888.5
1725,86.25001,-15.0829,-0.821141,0.02124166,0,0,0,0,0,14.37503,61.17035,0.821141,0,94.5986,-15.0829,8248.062,41059.7
1730,86.50001,-15.12476,-0.8288533,0.02144116,0,0,0,0,0,14.4169,61.3485,0.8288533,0,95.05847,-15.12476,8287.33,41325
1735,86.75001,-15.16623,-0.8351236,0.02160337,0,0,0,0,0,14.45836,61.52496,0.8351236,0,95.51604,-15.16623,8311.905,41518.2
1740,87.00001,-15.20796,-0.8431846,0.02181189,0,0,0,0,0,14.5001,61.70255,0.8431846,0,95.97868,-15.20796,8353.399,41798.3
1745,87.25001,-15.2497,-0.8484121,0.02194712,0,0,0,0,0,14.54183,61.88013,0.848412,0,96.44346,-15.2497,8366.213,41936.8
1750,87.50001,-15.29116,-0.8568843,0.02216628,0,0,0,0,0,14.5833,62.05659,0.8568843,0,96.90743,-15.29116,8410.644,42235.1
1755,87.75001,-15.3329,-0.8629243,0.02232253,0,0,0,0,0,14.62503,62.23418,0.8629243,0,97.37656,-15.3329,8430.286,42411.5
1760,88.00001,-15.3749,-0.8705777,0.02252051,0,0,0,0,0,14.66703,62.4129,0.8705776,0,97.85093,-15.3749,8464.806,42665.1
1765,88.25001,-15.4161,-0.878444,0.022724,0,0,0,0,0,14.70823,62.58822,0.878444,0,98.31845,-15.4161,8501.453,42930
1770,88.50001,-15.4581,-0.8843261,0.02287616,0,0,0,0,0,14.75023,62.76694,0.884326,0,98.79731,-15.4581,8517.494,43094.4
1775,88.75001,-15.49983,-0.893623,0.02311666,0,0,0,0,0,14.79196,62.94453,0.893623,0,99.27541,-15.49983,8565.987,43424.6
1780,89.00001,-15.54116,-0.8991839,0.02326051,0,0,0,0,0,14.8333,63.12041,0.8991839,0,99.7512,-15.54116,8578.379,43573.1
1785,89.25001,-15.58316,-0.9087364,0.02350762,0,0,0,0,0,14.8753,63.29914,0.9087364,0,100.237,-15.58316,8627.498,43911.6
1790,89.50001,-15.62476,-0.9158357,0.02369126,0,0,0,0,0,14.9169,63.47615,0.9158357,0,100.7205,-15.62476,8652.962,44131.3
1795,89.75001,-15.6665,-0.9223389,0.02385949,0,0,0,0,0,14.95863,63.65375,0.9223389,0,101.2079,-15.6665,8672.032,44320.6
1800,90.00001,-15.70796,-0.9306003,0.0240732,0,0,0,0,0,15.0001,63.8302,0.9306003,0,101.6946,-15.70796,8707.229,44594
1804,90.16801,-15.73596,-0.9366332,0.02422927,0,0,0,0,0,15.0281,63.94935,0.9366332,0,102.0245,-15.73596,8734.808,44799.5