File: GFBaking/em/xg6.csv
,Time sec,Extension mm,Load kgf,Compressive stress MPa,Cycle Count ,Total Cycle Count ,Repetitions Count ,Marked Data ,PIP Count ,Compressive extension mm,Compressive strain %,Compressive load kgf,Displacement (Strain 1) mm,True strain %,Corrected Position mm,True stress Pa,Elastic Modulus
0,0.0,-0.000133333,-0.01863685,0.0005043532,0,0,0,0,0,0.0,0.0,0.01863685,0,0.0,-0.000133333,504.3532,inf
5,0.25,-0.03479992,-0.02248393,0.0006084635,0,0,0,0,0,0.03466658,0.127921,0.02248393,0,0.1280029,-0.03479992,607.6852,466196
10,0.5,-0.08186647,-0.02794595,0.0007562774,0,0,0,0,0,0.08173313,0.3015983,0.02794595,0,0.302054,-0.08186647,753.9964,245770
15,0.7500001,-0.1246664,-0.03200901,0.0008662324,0,0,0,0,0,0.124533,0.4595315,0.03200901,0,0.4605905,-0.1246664,862.2518,184755
20,1.0,-0.1669329,-0.03602456,0.000974902,0,0,0,0,0,0.1667996,0.6154966,0.03602456,0,0.6173986,-0.1669329,968.9015,155243
25,1.25,-0.2083995,-0.03959932,0.001071643,0,0,0,0,0,0.2082662,0.7685098,0.03959931,0,0.771478,-0.2083995,1063.407,136671
30,1.5,-0.2501327,-0.04342164,0.001175083,0,0,0,0,0,0.2499994,0.922507,0.04342164,0,0.9267885,-0.2501327,1164.243,124846
35,1.75,-0.2919993,-0.046266,0.001252057,0,0,0,0,0,0.2918659,1.076996,0.046266,0,1.082838,-0.2919993,1238.573,113943
40,2.0,-0.3333325,-0.05060762,0.001369551,0,0,0,0,0,0.3331992,1.229517,0.05060762,0,1.237138,-0.3333325,1352.712,109174
45,2.25,-0.3751991,-0.05404377,0.00146254,0,0,0,0,0,0.3750657,1.384006,0.05404377,0,1.393673,-0.3751991,1442.299,103573
50,2.5,-0.4169323,-0.05812844,0.00157308,0,0,0,0,0,0.4167989,1.538004,0.05812844,0,1.549953,-0.4169323,1548.886,100247
55,2.75,-0.4583989,-0.0612404,0.001657297,0,0,0,0,0,0.4582655,1.691017,0.0612404,0,1.705478,-0.4583989,1629.271,96056.8
60,3.0,-0.5001321,-0.06512651,0.001762463,0,0,0,0,0,0.4999987,1.845014,0.06512651,0,1.862246,-0.5001321,1729.945,93625.9
65,3.25,-0.5419987,-0.06825851,0.001847222,0,0,0,0,0,0.5418653,1.999503,0.06825851,0,2.019764,-0.5419987,1810.286,90546.7
70,3.5,-0.5834653,-0.07230333,0.001956683,0,0,0,0,0,0.5833319,2.152516,0.07230332,0,2.176021,-0.5834653,1914.565,89094.3
75,3.75,-0.6250651,-0.07554437,0.002044393,0,0,0,0,0,0.6249318,2.306021,0.07554436,0,2.333026,-0.6250651,1997.249,86891.4
80,4.0,-0.667065,-0.0798339,0.002160477,0,0,0,0,0,0.6669317,2.461003,0.0798339,0,2.491791,-0.667065,2107.307,86042.6
85,4.25,-0.7085316,-0.08272089,0.002238605,0,0,0,0,0,0.7083983,2.614016,0.08272089,0,2.648789,-0.7085316,2180.087,83935.4
90,4.5,-0.7498648,-0.08681592,0.002349425,0,0,0,0,0,0.7497315,2.766537,0.08681592,0,2.805526,-0.7498648,2284.427,83234
95,4.75,-0.7919981,-0.09004472,0.002436803,0,0,0,0,0,0.7918647,2.92201,0.09004472,0,2.965551,-0.7919981,2365.6,81736.2
100,5.0,-0.8334646,-0.09402606,0.002544547,0,0,0,0,0,0.8333313,3.075023,0.09402606,0,3.123294,-0.8334646,2466.302,81103.2
105,5.25,-0.8750645,-0.09753394,0.002639478,0,0,0,0,0,0.8749312,3.228528,0.09753394,0,3.281795,-0.8750645,2554.262,80128.9
110,5.5,-0.9169311,-0.1016089,0.002749756,0,0,0,0,0,0.9167977,3.383018,0.1016089,0,3.441566,-0.9169311,2656.731,79664.6
115,5.75,-0.958531,-0.1048072,0.002836308,0,0,0,0,0,0.9583976,3.536523,0.1048072,0,3.600572,-0.958531,2736.001,78605.5
120,6.0,-1.000131,-0.1089942,0.002949617,0,0,0,0,0,0.9999976,3.690028,0.1089942,0,3.759832,-1.000131,2840.775,78345.1
125,6.25,-1.041731,-0.1123336,0.003039989,0,0,0,0,0,1.041598,3.843533,0.1123336,0,3.919346,-1.041731,2923.146,77520.5
130,6.5,-1.083597,-0.1162786,0.003146747,0,0,0,0,0,1.083464,3.998023,0.1162786,0,4.08014,-1.083597,3020.94,77142.3
135,6.75,-1.125197,-0.1200386,0.003248503,0,0,0,0,0,1.125064,4.151527,0.1200386,0,4.240165,-1.125197,3113.64,76692.2
140,7.0,-1.166797,-0.1237835,0.003349847,0,0,0,0,0,1.166664,4.305032,0.1237835,0,4.400447,-1.166797,3205.635,76264.8
145,7.25,-1.20853,-0.1277008,0.003455858,0,0,0,0,0,1.208397,4.45903,0.1277008,0,4.561502,-1.20853,3301.76,75961.1
150,7.5,-1.25013,-0.1315504,0.003560035,0,0,0,0,0,1.249997,4.612535,0.1315504,0,4.7223,-1.25013,3395.827,75646.8
155,7.75,-1.291864,-0.1355688,0.003668782,0,0,0,0,0,1.29173,4.766532,0.1355688,0,4.883875,-1.291864,3493.908,75438.9
160,8.0,-1.333597,-0.1390599,0.00376326,0,0,0,0,0,1.333463,4.920529,0.1390599,0,5.045711,-1.333597,3578.088,74959.8
165,8.25,-1.375063,-0.1432675,0.003877126,0,0,0,0,0,1.37493,5.073543,0.1432675,0,5.206773,-1.375063,3680.419,74898.7
170,8.5,-1.416663,-0.1466899,0.003969743,0,0,0,0,0,1.41653,5.227047,0.1466899,0,5.368613,-1.416663,3762.243,74435.8
175,8.75,-1.45853,-0.1508484,0.004082283,0,0,0,0,0,1.458396,5.381536,0.1508484,0,5.531756,-1.45853,3862.593,74348.6
180,9.0,-1.500263,-0.1544338,0.00417931,0,0,0,0,0,1.50013,5.535534,0.1544338,0,5.694644,-1.500263,3947.963,73998.1
185,9.25,-1.54173,-0.1584096,0.004286902,0,0,0,0,0,1.541596,5.688547,0.1584096,0,5.856755,-1.54173,4043.04,73861.5
190,9.5,-1.583596,-0.1625155,0.004398017,0,0,0,0,0,1.583463,5.843036,0.1625155,0,6.020697,-1.583596,4141.04,73772.4
195,9.75,-1.625196,-0.165532,0.004479651,0,0,0,0,0,1.625063,5.996542,0.165532,0,6.183861,-1.625196,4211.027,73218.2
200,10.0,-1.666663,-0.1701524,0.004604689,0,0,0,0,0,1.666529,6.149555,0.1701524,0,6.346768,-1.666663,4321.521,73389.3
205,10.25,-1.708796,-0.1733575,0.004691428,0,0,0,0,0,1.708663,6.305027,0.1733575,0,6.512565,-1.708796,4395.632,72927.9
210,10.5,-1.750262,-0.1776109,0.004806532,0,0,0,0,0,1.750129,6.458041,0.1776109,0,6.676009,-1.750262,4496.124,72946.9
215,10.75,-1.791862,-0.1805641,0.004886452,0,0,0,0,0,1.791729,6.611546,0.1805641,0,6.840247,-1.791862,4563.382,72438
220,11.0,-1.833462,-0.1848128,0.005001432,0,0,0,0,0,1.833329,6.765051,0.1848128,0,7.004754,-1.833462,4663.083,72460.1
225,11.25,-1.875062,-0.1883703,0.005097704,0,0,0,0,0,1.874929,6.918556,0.1883703,0,7.169534,-1.875062,4745.016,72216.2
230,11.5,-1.916929,-0.1917945,0.005190372,0,0,0,0,0,1.916795,7.073046,0.1917945,0,7.335644,-1.916929,4823.254,71923
235,11.75,-1.958262,-0.1954525,0.005289365,0,0,0,0,0,1.958129,7.225567,0.1954525,0,7.499909,-1.958262,4907.178,71747.6
240,12.0,-2.000262,-0.1991352,0.005389025,0,0,0,0,0,2.000129,7.380548,0.1991352,0,7.667101,-2.000262,4991.286,71564.4
245,12.25,-2.041995,-0.2029222,0.005491509,0,0,0,0,0,2.041862,7.534545,0.2029222,0,7.833507,-2.041995,5077.749,71434.9
250,12.5,-2.083195,-0.2060389,0.005575855,0,0,0,0,0,2.083061,7.686574,0.2060389,0,7.998059,-2.083195,5147.262,71097.5
255,12.75,-2.125328,-0.2096129,0.005672575,0,0,0,0,0,2.125195,7.842047,0.2096129,0,8.16662,-2.125328,5227.729,70896.8
260,13.0,-2.167061,-0.2134319,0.005775925,0,0,0,0,0,2.166928,7.996045,0.2134319,0,8.333861,-2.167061,5314.079,70798.2
265,13.25,-2.208528,-0.2165431,0.00586012,0,0,0,0,0,2.208395,8.149057,0.216543,0,8.500311,-2.208528,5382.575,70481.4
270,13.5,-2.250128,-0.2202283,0.005959851,0,0,0,0,0,2.249995,8.302564,0.2202283,0,8.667577,-2.250128,5465.03,70355.6
275,13.75,-2.291994,-0.2232945,0.006042828,0,0,0,0,0,2.291861,8.457052,0.2232945,0,8.836195,-2.291994,5531.783,70032.1
280,14.0,-2.333461,-0.2268092,0.006137944,0,0,0,0,0,2.333328,8.610065,0.2268092,0,9.003484,-2.333461,5609.463,69870.2
285,14.25,-2.374928,-0.2296968,0.006216088,0,0,0,0,0,2.374794,8.763078,0.2296968,0,9.171052,-2.374928,5671.368,69524.2
290,14.5,-2.416927,-0.233252,0.006312299,0,0,0,0,0,2.416794,8.918059,0.233252,0,9.341064,-2.416927,5749.364,69373.4
295,14.75,-2.458394,-0.2362641,0.006393814,0,0,0,0,0,2.458261,9.071073,0.2362641,0,9.5092,-2.458394,5813.827,69083.9
300,15.0,-2.500127,-0.2394157,0.006479102,0,0,0,0,0,2.499994,9.22507,0.2394157,0,9.678704,-2.500127,5881.4,68836.8
305,15.25,-2.541994,-0.2422075,0.006554655,0,0,0,0,0,2.54186,9.379559,0.2422075,0,9.849037,-2.541994,5939.857,68492.5
310,15.5,-2.58346,-0.2458958,0.006654469,0,0,0,0,0,2.583327,9.532572,0.2458958,0,10.01803,-2.58346,6020.127,68419.4
315,15.75,-2.625327,-0.2480128,0.00671176,0,0,0,0,0,2.625194,9.687061,0.2480128,0,10.18895,-2.625327,6061.587,67907.9
320,16.0,-2.666927,-0.2518606,0.006815889,0,0,0,0,0,2.666794,9.840567,0.2518606,0,10.35906,-2.666927,6145.167,67885.7
325,16.25,-2.708393,-0.2542232,0.006879825,0,0,0,0,0,2.70826,9.99358,0.2542232,0,10.52892,-2.708393,6192.284,67473.3
330,16.5,-2.750127,-0.2576412,0.006972325,0,0,0,0,0,2.749993,10.14758,0.2576412,0,10.70016,-2.750127,6264.803,67342.8
335,16.75,-2.791726,-0.2603378,0.007045299,0,0,0,0,0,2.791593,10.30108,0.2603378,0,10.87115,-2.791726,6319.557,67033.6
340,17.0,-2.833726,-0.262957,0.007116181,0,0,0,0,0,2.833593,10.45606,0.262957,0,11.04408,-2.833726,6372.109,66704.4
345,17.25,-2.87506,-0.2657932,0.007192935,0,0,0,0,0,2.874926,10.60858,0.2657932,0,11.21455,-2.87506,6429.866,66454.5
350,17.5,-2.916793,-0.2681493,0.007256695,0,0,0,0,0,2.916659,10.76258,0.2681493,0,11.38697,-2.916793,6475.687,66084.3
355,17.75,-2.958526,-0.2709938,0.007333674,0,0,0,0,0,2.958393,10.91658,0.2709938,0,11.55969,-2.958526,6533.088,65843.2
360,18.0,-2.999859,-0.2733174,0.007396555,0,0,0,0,0,2.999726,11.0691,0.2733174,0,11.73105,-2.999859,6577.823,65492.7
365,18.25,-3.041859,-0.275947,0.007467717,0,0,0,0,0,3.041726,11.22408,0.2759469,0,11.90548,-3.041859,6629.534,65209.8
370,18.5,-3.083593,-0.2786134,0.007539877,0,0,0,0,0,3.083459,11.37808,0.2786134,0,12.07909,-3.083593,6681.984,64948.8
375,18.75,-3.125059,-0.2807368,0.007597341,0,0,0,0,0,3.124926,11.53109,0.2807368,0,12.2519,-3.125059,6721.284,64575.4
380,19.0,-3.166792,-0.28307,0.007660481,0,0,0,0,0,3.166659,11.68509,0.28307,0,12.42612,-3.166792,6765.347,64254
385,19.25,-3.208792,-0.2853221,0.007721428,0,0,0,0,0,3.208659,11.84007,0.2853221,0,12.60176,-3.208792,6807.205,63917.4
390,19.5,-3.250259,-0.2875491,0.007781695,0,0,0,0,0,3.250126,11.99308,0.2875491,0,12.77548,-3.250259,6848.43,63594.4
395,19.75,-3.291592,-0.2900342,0.007848947,0,0,0,0,0,3.291459,12.1456,0.2900342,0,12.94893,-3.291592,6895.645,63338.5
400,20.0,-3.333725,-0.2915709,0.007890536,0,0,0,0,0,3.333592,12.30108,0.2915709,0,13.12606,-3.333725,6919.914,62869.4
405,20.25,-3.375192,-0.293966,0.00795535,0,0,0,0,0,3.375058,12.45409,0.293966,0,13.30069,-3.375192,6964.583,62607
410,20.5,-3.416525,-0.2961217,0.00801369,0,0,0,0,0,3.416392,12.60661,0.2961217,0,13.47505,-3.416525,7003.435,62303.1
415,20.75,-3.458792,-0.2985389,0.008079104,0,0,0,0,0,3.458658,12.76258,0.2985389,0,13.65368,-3.458792,7048.002,62044.1
420,21.0,-3.500125,-0.299976,0.008117996,0,0,0,0,0,3.499991,12.9151,0.2999761,0,13.82866,-3.500125,7069.549,61606.6
425,21.25,-3.541725,-0.3016644,0.008163687,0,0,0,0,0,3.541591,13.0686,0.3016644,0,14.00509,-3.541725,7096.807,61225.6
430,21.5,-3.583591,-0.3036777,0.008218171,0,0,0,0,0,3.583458,13.22309,0.3036777,0,14.18296,-3.583591,7131.475,60914.1
435,21.75,-3.625191,-0.3051118,0.008256981,0,0,0,0,0,3.625058,13.3766,0.3051118,0,14.36002,-3.625191,7152.478,60499.4
440,22.0,-3.666924,-0.3073129,0.008316547,0,0,0,0,0,3.666791,13.53059,0.3073129,0,14.53795,-3.666924,7191.269,60242.4
445,22.25,-3.708391,-0.3085468,0.008349938,0,0,0,0,0,3.708258,13.68361,0.3085468,0,14.71507,-3.708391,7207.366,59807.9
450,22.5,-3.750257,-0.3101379,0.008392998,0,0,0,0,0,3.750124,13.8381,0.3101379,0,14.89421,-3.750257,7231.567,59445.2
455,22.75,-3.791858,-0.3109675,0.008415448,0,0,0,0,0,3.791724,13.9916,0.3109675,0,15.07252,-3.791858,7237.992,58950.2
460,23.0,-3.833324,-0.3132875,0.008478233,0,0,0,0,0,3.833191,14.14462,0.3132875,0,15.25059,-3.833324,7279.019,58747.6
465,23.25,-3.875324,-0.3140447,0.008498725,0,0,0,0,0,3.87519,14.2996,0.3140447,0,15.43126,-3.875324,7283.441,58251.3
470,23.5,-3.916791,-0.3155513,0.008539496,0,0,0,0,0,3.916657,14.45261,0.3155513,0,15.60997,-3.916791,7305.316,57911.1
475,23.75,-3.958524,-0.3168607,0.00857493,0,0,0,0,0,3.95839,14.60661,0.3168607,0,15.79015,-3.958524,7322.424,57538.3
480,24.0,-4.000124,-0.3175871,0.008594588,0,0,0,0,0,3.99999,14.76011,0.3175871,0,15.97007,-4.000124,7326.018,57070.4
485,24.25,-4.041857,-0.3190548,0.008634308,0,0,0,0,0,4.041724,14.91411,0.3190548,0,16.1509,-4.041857,7346.578,56742.2
490,24.5,-4.08319,-0.3192253,0.008638923,0,0,0,0,0,4.083057,15.06663,0.3192253,0,16.33031,-4.08319,7337.328,56197.8
495,24.75,-4.12519,-0.3212531,0.008693798,0,0,0,0,0,4.125057,15.22161,0.3212531,0,16.51295,-4.12519,7370.461,55978.9
500,25.0,-4.167057,-0.3212493,0.008693696,0,0,0,0,0,4.166924,15.3761,0.3212493,0,16.69535,-4.167057,7356.945,55415.8
505,25.25,-4.20839,-0.3226935,0.008732778,0,0,0,0,0,4.208256,15.52862,0.3226935,0,16.87574,-4.20839,7376.698,55118.2
510,25.5,-4.250256,-0.3230474,0.008742356,0,0,0,0,0,4.250123,15.68311,0.3230474,0,17.0588,-4.250256,7371.282,54635.1
515,25.75,-4.29199,-0.324075,0.008770166,0,0,0,0,0,4.291857,15.83711,0.324075,0,17.24161,-4.29199,7381.225,54276
520,26.0,-4.33319,-0.3244187,0.008779467,0,0,0,0,0,4.333056,15.98914,0.3244187,0,17.42241,-4.33319,7375.706,53816.9
525,26.25,-4.375456,-0.3252445,0.008801815,0,0,0,0,0,4.375323,16.1451,0.3252445,0,17.60823,-4.375456,7380.753,53432.7
530,26.5,-4.416923,-0.325673,0.008813411,0,0,0,0,0,4.416789,16.29811,0.325673,0,17.79087,-4.416923,7376.991,53000.8
535,26.75,-4.458389,-0.3263685,0.008832233,0,0,0,0,0,4.458256,16.45113,0.3263685,0,17.97384,-4.458389,7379.231,52620
540,27.0,-4.500256,-0.3265113,0.008836098,0,0,0,0,0,4.500122,16.60562,0.3265113,0,18.15892,-4.500256,7368.809,52153.2
545,27.25,-4.541856,-0.3274881,0.008862531,0,0,0,0,0,4.541722,16.75912,0.3274881,0,18.34316,-4.541856,7377.249,51830.1
550,27.5,-4.583456,-0.327558,0.008864423,0,0,0,0,0,4.583323,16.91263,0.327558,0,18.52775,-4.583456,7365.216,51370.6
555,27.75,-4.625055,-0.3279991,0.00887636,0,0,0,0,0,4.624922,17.06613,0.3279991,0,18.71267,-4.625055,7361.508,50977.1
560,28.0,-4.666789,-0.3283764,0.00888657,0,0,0,0,0,4.666655,17.22013,0.3283764,0,18.89853,-4.666789,7356.291,50579.4
565,28.25,-4.708522,-0.3287319,0.008896191,0,0,0,0,0,4.708389,17.37413,0.3287319,0,19.08473,-4.708522,7350.555,50185.3
570,28.5,-4.749855,-0.3289598,0.00890236,0,0,0,0,0,4.749722,17.52665,0.3289599,0,19.26949,-4.749855,7342.075,49783.1
575,28.75,-4.791989,-0.3290565,0.008904975,0,0,0,0,0,4.791855,17.68212,0.3290565,0,19.45819,-4.791989,7330.386,49359.9
580,29.0,-4.833722,-0.3301567,0.008934748,0,0,0,0,0,4.833589,17.83612,0.3301567,0,19.64544,-4.833722,7341.136,49097.3
585,29.25,-4.875188,-0.328444,0.0088884,0,0,0,0,0,4.875054,17.98913,0.328444,0,19.83184,-4.875188,7289.454,48427.2
590,29.5,-4.916921,-0.3304893,0.008943751,0,0,0,0,0,4.916788,18.14313,0.3304893,0,20.01979,-4.916921,7321.075,48315.1
595,29.75,-4.958655,-0.3292216,0.008909443,0,0,0,0,0,4.958521,18.29713,0.3292216,0,20.2081,-4.958655,7279.271,47724.7
600,30.0,-5.000121,-0.3302961,0.008938522,0,0,0,0,0,4.999987,18.45014,0.3302961,0,20.39555,-5.000121,7289.353,47483.4
605,30.25,-5.041588,-0.3296626,0.008921376,0,0,0,0,0,5.041454,18.60315,0.3296626,0,20.58336,-5.041588,7261.719,47002.5
610,30.5,-5.083587,-0.3300156,0.008930931,0,0,0,0,0,5.083454,18.75813,0.3300156,0,20.77395,-5.083587,7255.655,46664.1
615,30.75,-5.124921,-0.3298054,0.008925242,0,0,0,0,0,5.124788,18.91066,0.3298054,0,20.96186,-5.124921,7237.421,46258.2
620,31.0,-5.166788,-0.3299483,0.00892911,0,0,0,0,0,5.166655,19.06515,0.3299483,0,21.15256,-5.166788,7226.763,45903.3
625,31.25,-5.208788,-0.3298831,0.008927344,0,0,0,0,0,5.208654,19.22013,0.3298831,0,21.34423,-5.208788,7211.498,45524.2
630,31.5,-5.249987,-0.330262,0.008937598,0,0,0,0,0,5.249854,19.37215,0.330262,0,21.53261,-5.249987,7206.193,45218.8
635,31.75,-5.291987,-0.329735,0.008923336,0,0,0,0,0,5.291854,19.52714,0.329735,0,21.72502,-5.291987,7180.864,44788.3
640,32.0,-5.333587,-0.3304361,0.008942311,0,0,0,0,0,5.333454,19.68064,0.3304361,0,21.91595,-5.333587,7182.407,44533.4
645,32.25,-5.375054,-0.3303314,0.008939477,0,0,0,0,0,5.37492,19.83365,0.3303314,0,22.10664,-5.375054,7166.452,44175.9
650,32.5,-5.41692,-0.3305278,0.008944792,0,0,0,0,0,5.416786,19.98814,0.3305278,0,22.29953,-5.41692,7156.894,43860.5
655,32.75,-5.458387,-0.3305004,0.008944051,0,0,0,0,0,5.458253,20.14116,0.3305004,0,22.49095,-5.458387,7142.616,43523.7
660,33.0,-5.500253,-0.3312424,0.008964132,0,0,0,0,0,5.50012,20.29564,0.3312424,0,22.6846,-5.500253,7144.803,43289.3
665,33.25,-5.541853,-0.330174,0.008935218,0,0,0,0,0,5.541719,20.44915,0.330174,0,22.87737,-5.541853,7108.042,42825.8
670,33.5,-5.583453,-0.3314574,0.008969948,0,0,0,0,0,5.58332,20.60266,0.3314573,0,23.07053,-5.583453,7121.9,42671.9
675,33.75,-5.625186,-0.3310947,0.008960134,0,0,0,0,0,5.625053,20.75665,0.3310947,0,23.26467,-5.625186,7100.311,42309
680,34.0,-5.66652,-0.3326289,0.009001651,0,0,0,0,0,5.666386,20.90917,0.3326288,0,23.45733,-5.66652,7119.48,42195
685,34.25,-5.708386,-0.3318529,0.008980651,0,0,0,0,0,5.708253,21.06366,0.3318529,0,23.65285,-5.708386,7088.997,41787.8
690,34.5,-5.750386,-0.3336923,0.009030432,0,0,0,0,0,5.750253,21.21865,0.3336923,0,23.84938,-5.750386,7114.296,41712.5
695,34.75,-5.791853,-0.3332169,0.009017564,0,0,0,0,0,5.791719,21.37166,0.3332169,0,24.0438,-5.791853,7090.362,41354.9
700,35.0,-5.833453,-0.3343288,0.009047655,0,0,0,0,0,5.833319,21.52516,0.3343288,0,24.23922,-5.833453,7100.133,41197
705,35.25,-5.875319,-0.3347327,0.009058587,0,0,0,0,0,5.875186,21.67965,0.3347327,0,24.43628,-5.875319,7094.717,40952.8
710,35.5,-5.917052,-0.3350169,0.009066277,0,0,0,0,0,5.916919,21.83365,0.3350169,0,24.63309,-5.917052,7086.778,40698.5
715,35.75,-5.958385,-0.335668,0.009083897,0,0,0,0,0,5.958252,21.98617,0.335668,0,24.82841,-5.958385,7086.696,40494.7
720,36.0,-6.000385,-0.3359501,0.00909153,0,0,0,0,0,6.000252,22.14115,0.3359501,0,25.02726,-6.000385,7078.561,40245.1
725,36.25,-6.041852,-0.3362549,0.009099781,0,0,0,0,0,6.041718,22.29416,0.336255,0,25.22398,-6.041852,7071.061,40005.1
730,36.5,-6.083185,-0.3367794,0.009113975,0,0,0,0,0,6.083052,22.44669,0.3367794,0,25.42046,-6.083185,7068.19,39795.3
735,36.75,-6.125452,-0.3364757,0.009105755,0,0,0,0,0,6.125318,22.60265,0.3364757,0,25.62176,-6.125452,7047.613,39485
740,37.0,-6.166785,-0.3373889,0.009130469,0,0,0,0,0,6.166652,22.75517,0.3373889,0,25.81902,-6.166785,7052.815,39326.8
745,37.25,-6.208518,-0.3374253,0.009131452,0,0,0,0,0,6.208385,22.90917,0.3374253,0,26.01858,-6.208518,7039.512,39066.7
750,37.5,-6.250252,-0.3385042,0.009160649,0,0,0,0,0,6.250118,23.06317,0.3385042,0,26.21855,-6.250252,7047.914,38929.9
755,37.75,-6.291718,-0.3387934,0.009168477,0,0,0,0,0,6.291585,23.21618,0.3387934,0,26.41763,-6.291718,7039.907,38706.3
760,38.0,-6.333584,-0.3391107,0.009177064,0,0,0,0,0,6.333451,23.37067,0.3391107,0,26.61903,-6.333584,7032.322,38486.5
765,38.25,-6.375051,-0.3395076,0.009187805,0,0,0,0,0,6.374918,23.52368,0.3395076,0,26.81891,-6.375051,7026.495,38280.9
770,38.5,-6.416918,-0.3396487,0.009191623,0,0,0,0,0,6.416785,23.67817,0.3396487,0,27.02112,-6.416918,7015.214,38046.9
775,38.75,-6.458518,-0.3400433,0.009202302,0,0,0,0,0,6.458385,23.83168,0.3400433,0,27.22245,-6.458518,7009.239,37845.8
780,39.0,-6.500117,-0.3395664,0.009189397,0,0,0,0,0,6.499984,23.98518,0.3395664,0,27.42419,-6.500117,6985.303,37550.8
785,39.25,-6.541984,-0.3404128,0.009212302,0,0,0,0,0,6.541851,24.13967,0.3404128,0,27.62763,-6.541984,6988.483,37403.5
790,39.5,-6.583451,-0.3406582,0.009218943,0,0,0,0,0,6.583318,24.29268,0.3406582,0,27.82954,-6.583451,6979.414,37194.7
795,39.75,-6.625184,-0.3406237,0.009218009,0,0,0,0,0,6.62505,24.44668,0.3406237,0,28.03316,-6.625184,6964.512,36956.7
800,40.0,-6.666784,-0.3408893,0.009225195,0,0,0,0,0,6.66665,24.60019,0.3408892,0,28.23654,-6.666784,6955.78,36754.7
805,40.25,-6.708517,-0.3413172,0.009236775,0,0,0,0,0,6.708384,24.75418,0.3413172,0,28.44099,-6.708517,6950.287,36571.9
810,40.5,-6.749983,-0.3410661,0.009229981,0,0,0,0,0,6.74985,24.9072,0.3410661,0,28.64455,-6.749983,6931.052,36320.5
815,40.75,-6.79185,-0.3413791,0.00923845,0,0,0,0,0,6.791717,25.06169,0.341379,0,28.85049,-6.79185,6923.139,36129.7
820,41.0,-6.833583,-0.3408777,0.009224882,0,0,0,0,0,6.833449,25.21568,0.3408777,0,29.0562,-6.833583,6898.766,35856.3
825,41.25,-6.874917,-0.3418211,0.009250412,0,0,0,0,0,6.874784,25.3682,0.3418211,0,29.26036,-6.874917,6903.749,35739.4
830,41.5,-6.916916,-0.341593,0.009244241,0,0,0,0,0,6.916783,25.52319,0.341593,0,29.46823,-6.916916,6884.816,35498.7
835,41.75,-6.958649,-0.341684,0.009246703,0,0,0,0,0,6.958516,25.67718,0.341684,0,29.67522,-6.958649,6872.41,35295.2
840,42.0,-6.999983,-0.3420693,0.009257129,0,0,0,0,0,6.99985,25.8297,0.3420693,0,29.88064,-6.999983,6866.04,35126.3
845,42.25,-7.041983,-0.3416811,0.009246625,0,0,0,0,0,7.041849,25.98468,0.3416811,0,30.08981,-7.041983,6843.919,34877.2
850,42.5,-7.083583,-0.342907,0.009279801,0,0,0,0,0,7.083449,26.13819,0.342907,0,30.29743,-7.083583,6854.228,34796.8
855,42.75,-7.125049,-0.3424038,0.009266183,0,0,0,0,0,7.124916,26.2912,0.3424038,0,30.5048,-7.125049,6829.992,34543.5
860,43.0,-7.166916,-0.3425812,0.009270983,0,0,0,0,0,7.166782,26.44569,0.3425812,0,30.71462,-7.166916,6819.207,34359.5
865,43.25,-7.208382,-0.3423806,0.009265553,0,0,0,0,0,7.208249,26.59871,0.3423806,0,30.92286,-7.208382,6801.036,34141.8
870,43.5,-7.250249,-0.3422592,0.009262269,0,0,0,0,0,7.250116,26.75319,0.3422592,0,31.13356,-7.250249,6784.317,33932.6
875,43.75,-7.291582,-0.3423968,0.009265994,0,0,0,0,0,7.291449,26.90572,0.3423968,0,31.342,-7.291582,6772.912,33753.8
880,44.0,-7.333582,-0.3424996,0.009268774,0,0,0,0,0,7.333449,27.0607,0.3424996,0,31.55426,-7.333582,6760.579,33570.6
885,44.25,-7.375315,-0.3432566,0.009289261,0,0,0,0,0,7.375182,27.21469,0.3432566,0,31.76561,-7.375315,6761.217,33454.4
890,44.5,-7.416515,-0.3425561,0.009270305,0,0,0,0,0,7.416381,27.36672,0.3425561,0,31.9747,-7.416515,6733.326,33200.7
895,44.75,-7.458782,-0.3435088,0.009296087,0,0,0,0,0,7.458649,27.52269,0.3435088,0,32.18966,-7.458782,6737.554,33104.3
900,45.0,-7.500248,-0.3434982,0.0092958,0,0,0,0,0,7.500115,27.6757,0.3434982,0,32.401,-7.500248,6723.122,32920.3
905,45.25,-7.541715,-0.3438209,0.00930453,0,0,0,0,0,7.541582,27.82871,0.3438208,0,32.61279,-7.541715,6715.199,32770
910,45.5,-7.583448,-0.3439322,0.009307545,0,0,0,0,0,7.583315,27.98271,0.3439322,0,32.8264,-7.583448,6703.041,32600.3
915,45.75,-7.625315,-0.344024,0.009310029,0,0,0,0,0,7.625182,28.1372,0.344024,0,33.04115,-7.625315,6690.447,32429.9
920,46.0,-7.666781,-0.343876,0.009306023,0,0,0,0,0,7.666647,28.29021,0.343876,0,33.25429,-7.666781,6673.329,32240.6
925,46.25,-7.708381,-0.3440439,0.009310567,0,0,0,0,0,7.708248,28.44372,0.3440439,0,33.46859,-7.708381,6662.295,32082.3
930,46.5,-7.750381,-0.3438982,0.009306624,0,0,0,0,0,7.750248,28.5987,0.3438982,0,33.68541,-7.750381,6645.05,31894.9
935,46.75,-7.791714,-0.3433296,0.009291237,0,0,0,0,0,7.791581,28.75122,0.3433296,0,33.89925,-7.791714,6619.893,31673.3
940,47.0,-7.833314,-0.3438542,0.009305434,0,0,0,0,0,7.833181,28.90473,0.3438542,0,34.11493,-7.833314,6615.724,31553.2
945,47.25,-7.875448,-0.3433408,0.00929154,0,0,0,0,0,7.875315,29.0602,0.3433408,0,34.33386,-7.875448,6591.4,31337.5
950,47.5,-7.916648,-0.3433423,0.00929158,0,0,0,0,0,7.916515,29.21223,0.3433423,0,34.5484,-7.916648,6577.302,31174.6
955,47.75,-7.958648,-0.3429623,0.009281295,0,0,0,0,0,7.958515,29.36721,0.3429623,0,34.76757,-7.958648,6555.638,30975.7
960,48.0,-8.000247,-0.3431201,0.009285566,0,0,0,0,0,8.000114,29.52072,0.3431201,0,34.98514,-8.000247,6544.401,30828.8
965,48.25,-8.041714,-0.3426016,0.009271536,0,0,0,0,0,8.041581,29.67373,0.3426016,0,35.20248,-8.041714,6520.325,30623.5
970,48.5,-8.083314,-0.3424629,0.009267782,0,0,0,0,0,8.08318,29.82723,0.3424629,0,35.42099,-8.083314,6503.459,30453.6
975,48.75,-8.12518,-0.3428708,0.009278821,0,0,0,0,0,8.125047,29.98172,0.3428708,0,35.64139,-8.12518,6496.87,30332.8
980,49.0,-8.166914,-0.3412275,0.009234349,0,0,0,0,0,8.16678,30.13572,0.3412275,0,35.86157,-8.166914,6451.512,30033.1
985,49.25,-8.20838,-0.3421296,0.009258762,0,0,0,0,0,8.208247,30.28873,0.3421296,0,36.08082,-8.20838,6454.4,29960.4
990,49.5,-8.250247,-0.3406596,0.009218981,0,0,0,0,0,8.250113,30.44322,0.3406596,0,36.30268,-8.250247,6412.425,29680.3
995,49.75,-8.29198,-0.3415176,0.0092422,0,0,0,0,0,8.291847,30.59722,0.3415176,0,36.52433,-8.29198,6414.344,29605.3
1000,50.0,-8.33318,-0.3409902,0.009227926,0,0,0,0,0,8.333047,30.74925,0.3409902,0,36.74362,-8.33318,6390.408,29413.4
1005,50.25,-8.375047,-0.3415028,0.009241799,0,0,0,0,0,8.374913,30.90374,0.3415028,0,36.96696,-8.375047,6385.737,29310.4
1010,50.5,-8.417047,-0.341968,0.009254389,0,0,0,0,0,8.416913,31.05872,0.341968,0,37.19151,-8.417047,6380.094,29203.8
1015,50.75,-8.45838,-0.3421306,0.009258789,0,0,0,0,0,8.458246,31.21124,0.3421306,0,37.41298,-8.45838,6369.006,29074.9
1020,51.0,-8.500113,-0.3423168,0.009263827,0,0,0,0,0,8.49998,31.36524,0.3423168,0,37.63711,-8.500113,6358.205,28947.9
1025,51.25,-8.541979,-0.3427395,0.009275266,0,0,0,0,0,8.541845,31.51973,0.3427395,0,37.86245,-8.541979,6351.728,28841.6
1030,51.5,-8.583579,-0.3431219,0.009285616,0,0,0,0,0,8.583447,31.67323,0.3431219,0,38.08686,-8.583579,6344.561,28733.9
1035,51.75,-8.625045,-0.3429516,0.009281008,0,0,0,0,0,8.624912,31.82624,0.3429516,0,38.31105,-8.625045,6327.211,28581.5
1040,52.0,-8.667045,-0.3442174,0.009315263,0,0,0,0,0,8.666912,31.98122,0.3442174,0,38.53864,-8.667045,6336.127,28548
1045,52.25,-8.708379,-0.3434092,0.00929339,0,0,0,0,0,8.708245,32.13375,0.3434092,0,38.76313,-8.708379,6307.076,28345.8
1050,52.5,-8.749845,-0.34542,0.009347808,0,0,0,0,0,8.749712,32.28676,0.34542,0,38.98885,-8.749845,6329.703,28376.6
1055,52.75,-8.792112,-0.3446792,0.00932776,0,0,0,0,0,8.791979,32.44273,0.3446792,0,39.21944,-8.792112,6301.581,28179.7
1060,53.0,-8.833446,-0.3461829,0.009368453,0,0,0,0,0,8.833312,32.59525,0.3461829,0,39.44547,-8.833446,6314.783,28170.2
1065,53.25,-8.875045,-0.3457595,0.009356995,0,0,0,0,0,8.874912,32.74875,0.3457595,0,39.67346,-8.875045,6292.696,28003.8
1070,53.5,-8.916778,-0.3470654,0.009392334,0,0,0,0,0,8.916644,32.90275,0.3470654,0,39.90271,-8.916778,6301.998,27978
1075,53.75,-8.958378,-0.3465497,0.009378377,0,0,0,0,0,8.958243,33.05625,0.3465497,0,40.13175,-8.958378,6278.238,27806.7
1080,54.0,-9.000245,-0.3479307,0.009415751,0,0,0,0,0,9.000112,33.21074,0.3479307,0,40.36279,-9.000245,6288.71,27787.7
1085,54.25,-9.041712,-0.3478838,0.009414483,0,0,0,0,0,9.041578,33.36376,0.3478838,0,40.59216,-9.041712,6273.458,27656.5
1090,54.5,-9.083712,-0.3490389,0.009445741,0,0,0,0,0,9.083578,33.51874,0.3490389,0,40.82501,-9.083712,6279.648,27620
1095,54.75,-9.125178,-0.3488508,0.009440653,0,0,0,0,0,9.125044,33.67175,0.3488508,0,41.05543,-9.125178,6261.82,27479.7
1100,55.0,-9.166778,-0.3497796,0.009465788,0,0,0,0,0,9.166645,33.82526,0.3497796,0,41.28713,-9.166778,6263.96,27427.8
1105,55.25,-9.208511,-0.3500293,0.009472545,0,0,0,0,0,9.208378,33.97925,0.3500293,0,41.52011,-9.208511,6253.845,27323
1110,55.5,-9.250111,-0.3507582,0.009492271,0,0,0,0,0,9.249978,34.13276,0.3507582,0,41.7529,-9.250111,6252.297,27256.8
1115,55.75,-9.291711,-0.3510579,0.00950038,0,0,0,0,0,9.291578,34.28627,0.3510579,0,41.98622,-9.291711,6243.054,27157.9
1120,56.0,-9.333444,-0.3517934,0.009520285,0,0,0,0,0,9.333311,34.44026,0.3517934,0,42.22084,-9.333444,6241.474,27093.1
1125,56.25,-9.375044,-0.3521934,0.009531111,0,0,0,0,0,9.37491,34.59377,0.3521934,0,42.45526,-9.375044,6233.94,27003.6
1130,56.5,-9.416644,-0.3529349,0.009551176,0,0,0,0,0,9.41651,34.74727,0.3529349,0,42.69023,-9.416644,6232.403,26940.9
1135,56.75,-9.45851,-0.3535471,0.009567743,0,0,0,0,0,9.458377,34.90176,0.3535471,0,42.92727,-9.45851,6228.432,26868.2
1140,57.0,-9.500244,-0.353955,0.009578781,0,0,0,0,0,9.500111,35.05576,0.353955,0,43.16411,-9.500244,6220.867,26781
1145,57.25,-9.541577,-0.3547338,0.009599858,0,0,0,0,0,9.541444,35.20828,0.3547338,0,43.39923,-9.541577,6219.913,26723.6
1150,57.5,-9.583577,-0.355021,0.00960763,0,0,0,0,0,9.583444,35.36326,0.355021,0,43.63872,-9.583577,6210.058,26628.1
1155,57.75,-9.625443,-0.356044,0.009635314,0,0,0,0,0,9.62531,35.51775,0.356044,0,43.87802,-9.625443,6213.068,26588.6
1160,58.0,-9.666643,-0.3566855,0.009652676,0,0,0,0,0,9.66651,35.66978,0.3566855,0,44.11407,-9.666643,6209.588,26523
1165,58.25,-9.708776,-0.3576885,0.009679819,0,0,0,0,0,9.708642,35.82525,0.3576885,0,44.35603,-9.708776,6212.0,26482.2
1170,58.5,-9.750243,-0.3582187,0.009694168,0,0,0,0,0,9.750109,35.97826,0.3582187,0,44.59475,-9.750243,6206.375,26408.6
1175,58.75,-9.791843,-0.3588192,0.009710417,0,0,0,0,0,9.791709,36.13177,0.3588192,0,44.83481,-9.791843,6201.872,26340.5
1180,59.0,-9.833443,-0.3606742,0.009760618,0,0,0,0,0,9.83331,36.28527,0.3606742,0,45.07545,-9.833443,6218.951,26364.7
1185,59.25,-9.875042,-0.3601303,0.0097459,0,0,0,0,0,9.874909,36.43878,0.3601303,0,45.31666,-9.875042,6194.613,26214
1190,59.5,-9.916776,-0.3619796,0.009795946,0,0,0,0,0,9.916643,36.59278,0.3619796,0,45.55924,-9.916776,6211.337,26237.8
1195,59.75,-9.958242,-0.361911,0.009794088,0,0,0,0,0,9.958109,36.74579,0.361911,0,45.80085,-9.958242,6195.173,26123.6
1200,60.0,-10.00011,-0.3631148,0.009826666,0,0,0,0,0,9.999975,36.90028,0.3631148,0,46.04538,-10.00011,6200.599,26100.7
1205,60.25,-10.04198,-0.3636041,0.009839907,0,0,0,0,0,10.04184,37.05477,0.3636041,0,46.29052,-10.04198,6193.753,26026.9
1210,60.5,-10.08331,-0.363928,0.009848674,0,0,0,0,0,10.08317,37.20729,0.363928,0,46.53311,-10.08331,6184.25,25943.3
1215,60.75,-10.12544,-0.3651669,0.009882201,0,0,0,0,0,10.12531,37.36276,0.3651669,0,46.78102,-10.12544,6189.938,25923.3
1220,61.0,-10.16704,-0.3653031,0.009885888,0,0,0,0,0,10.16691,37.51627,0.3653032,0,47.02639,-10.16704,6177.072,25826.9
1225,61.25,-10.20837,-0.3658632,0.009901045,0,0,0,0,0,10.20824,37.66879,0.3658632,0,47.27079,-10.20837,6171.441,25761.7
1230,61.5,-10.25024,-0.3663901,0.009915303,0,0,0,0,0,10.25011,37.82328,0.3663901,0,47.51895,-10.25024,6165.01,25693.5
1235,61.75,-10.29197,-0.3666705,0.009922891,0,0,0,0,0,10.29184,37.97728,0.3666705,0,47.76694,-10.29197,6154.447,25608.9
1240,62.0,-10.33344,-0.367564,0.00994707,0,0,0,0,0,10.33331,38.13029,0.367564,0,48.01394,-10.33344,6154.224,25568.2
1245,62.25,-10.37504,-0.3677651,0.009952514,0,0,0,0,0,10.37491,38.28379,0.3677651,0,48.26236,-10.37504,6142.314,25479.7
1250,62.5,-10.41704,-0.3685371,0.009973406,0,0,0,0,0,10.41691,38.43877,0.3685371,0,48.5138,-10.41704,6139.751,25430.2
1255,62.75,-10.45824,-0.3689997,0.009985926,0,0,0,0,0,10.45811,38.59081,0.3689997,0,48.76106,-10.45824,6132.276,25361.8
1260,63.0,-10.50011,-0.3694132,0.009997115,0,0,0,0,0,10.49997,38.74529,0.3694132,0,49.01295,-10.50011,6123.703,25289
1265,63.25,-10.54197,-0.3697573,0.01000643,0,0,0,0,0,10.54184,38.89978,0.3697573,0,49.26548,-10.54197,6113.949,25212
1270,63.5,-10.58331,-0.3706396,0.0100303,0,0,0,0,0,10.58317,39.0523,0.3706397,0,49.51541,-10.58331,6113.239,25173.5
1275,63.75,-10.62517,-0.3712928,0.01004798,0,0,0,0,0,10.62504,39.20679,0.3712927,0,49.76921,-10.62517,6108.489,25118.5
1280,64.0,-10.66691,-0.3715108,0.01005388,0,0,0,0,0,10.66677,39.36079,0.3715108,0,50.02285,-10.66691,6096.594,25034.9
1285,64.25,-10.70811,-0.3724468,0.01007921,0,0,0,0,0,10.70797,39.51282,0.3724468,0,50.27388,-10.70811,6096.63,25001.4
1290,64.5,-10.75024,-0.3728587,0.01009036,0,0,0,0,0,10.75011,39.66829,0.3728587,0,50.53124,-10.75024,6087.685,24930.9
1295,64.75,-10.79184,-0.3739941,0.01012108,0,0,0,0,0,10.79171,39.8218,0.3739941,0,50.786,-10.79184,6090.685,24910.5
1300,65.0,-10.83371,-0.3743841,0.01013164,0,0,0,0,0,10.83357,39.97628,0.3743841,0,51.04304,-10.83371,6081.386,24840.1
1305,65.25,-10.87504,-0.3752518,0.01015512,0,0,0,0,0,10.87491,40.12881,0.3752518,0,51.29748,-10.87504,6079.99,24803
1310,65.5,-10.91677,-0.3760959,0.01017796,0,0,0,0,0,10.91664,40.2828,0.3760959,0,51.55501,-10.91677,6077.994,24763.8
1315,65.75,-10.95851,-0.3766665,0.01019341,0,0,0,0,0,10.95837,40.4368,0.3766665,0,51.81323,-10.95851,6071.518,24706.9
1320,66.0,-10.99997,-0.377256,0.01020936,0,0,0,0,0,10.99984,40.58981,0.377256,0,52.07045,-10.99997,6065.398,24652.3
1325,66.25,-11.04184,-0.3783318,0.01023847,0,0,0,0,0,11.04171,40.7443,0.3783318,0,52.33083,-11.04184,6066.877,24628.8
1330,66.5,-11.08357,-0.3787073,0.01024863,0,0,0,0,0,11.08344,40.8983,0.3787073,0,52.59105,-11.08357,6057.117,24560.5
1335,66.75,-11.12504,-0.3799227,0.01028152,0,0,0,0,0,11.12491,41.05132,0.3799227,0,52.85029,-11.12504,6060.824,24547.4
1340,67.0,-11.16691,-0.3811516,0.01031478,0,0,0,0,0,11.16677,41.2058,0.3811516,0,53.1127,-11.16691,6064.492,24534.5
1345,67.25,-11.20837,-0.3825327,0.01035216,0,0,0,0,0,11.20824,41.35882,0.3825327,0,53.3733,-11.20837,6070.626,24532.3
1350,67.5,-11.25024,-0.3834343,0.01037656,0,0,0,0,0,11.25011,41.51331,0.3834344,0,53.63709,-11.25024,6068.905,24498.6
1355,67.75,-11.29144,-0.3847391,0.01041187,0,0,0,0,0,11.29131,41.66534,0.3847391,0,53.89737,-11.29144,6073.727,24492.3
1360,68.0,-11.33371,-0.3859208,0.01044384,0,0,0,0,0,11.33357,41.8213,0.3859208,0,54.16509,-11.33371,6076.093,24475.9
1365,68.25,-11.37504,-0.3874172,0.01048434,0,0,0,0,0,11.3749,41.97382,0.3874172,0,54.42759,-11.37504,6083.663,24481.5
1370,68.5,-11.41664,-0.3879367,0.0104984,0,0,0,0,0,11.41651,42.12733,0.3879367,0,54.69249,-11.41664,6075.704,24425
1375,68.75,-11.45864,-0.3898915,0.0105513,0,0,0,0,0,11.45851,42.28231,0.3898915,0,54.96065,-11.45864,6089.968,24458.1
1380,69.0,-11.50011,-0.3907085,0.01057341,0,0,0,0,0,11.49997,42.43532,0.3907085,0,55.2261,-11.50011,6086.55,24421
1385,69.25,-11.54184,-0.392954,0.01063418,0,0,0,0,0,11.5417,42.58932,0.3929541,0,55.49398,-11.54184,6105.156,24472.6
1390,69.5,-11.58357,-0.3933399,0.01064462,0,0,0,0,0,11.58344,42.74332,0.3933399,0,55.76258,-11.58357,6094.758,24408.3
1395,69.75,-11.62517,-0.3956312,0.01070663,0,0,0,0,0,11.62504,42.89682,0.3956312,0,56.03104,-11.62517,6113.825,24462.6
1400,70.0,-11.66677,-0.3969185,0.01074147,0,0,0,0,0,11.66664,43.05033,0.3969185,0,56.30022,-11.66677,6117.23,24454.7
1405,70.25,-11.7085,-0.3989227,0.01079571,0,0,0,0,0,11.70837,43.20432,0.3989227,0,56.571,-11.7085,6131.494,24490.6
1410,70.5,-11.75037,-0.400359,0.01083457,0,0,0,0,0,11.75024,43.35881,0.400359,0,56.84338,-11.75037,6136.832,24491.2
1415,70.75,-11.79184,-0.4026654,0.01089699,0,0,0,0,0,11.79171,43.51183,0.4026654,0,57.11389,-11.79184,6155.511,24545.7
1420,71.0,-11.83344,-0.4038885,0.01093009,0,0,0,0,0,11.8333,43.66533,0.4038886,0,57.386,-11.83344,6157.431,24533.7
1425,71.25,-11.87517,-0.4060652,0.010989,0,0,0,0,0,11.87504,43.81933,0.4060652,0,57.65974,-11.87517,6173.691,24579.2
1430,71.5,-11.91677,-0.4071909,0.01101946,0,0,0,0,0,11.91664,43.97283,0.4071909,0,57.93335,-11.91677,6173.891,24561.3
1435,71.75,-11.9585,-0.409558,0.01108352,0,0,0,0,0,11.95837,44.12683,0.409558,0,58.20859,-11.9585,6192.713,24617.9
1440,72.0,-12.00024,-0.4105943,0.01111156,0,0,0,0,0,12.0001,44.28083,0.4105943,0,58.48459,-12.00024,6191.271,24594.4
1445,72.25,-12.04157,-0.4129009,0.01117398,0,0,0,0,0,12.04144,44.43335,0.4129009,0,58.7587,-12.04157,6209.009,24647.6
1450,72.5,-12.08344,-0.4139931,0.01120354,0,0,0,0,0,12.0833,44.58784,0.4139931,0,59.03711,-12.08344,6208.125,24627.2
1455,72.75,-12.12504,-0.4163219,0.01126657,0,0,0,0,0,12.1249,44.74134,0.4163219,0,59.31451,-12.12504,6225.753,24680.8
1460,73.0,-12.1669,-0.4171523,0.01128904,0,0,0,0,0,12.16677,44.89583,0.4171523,0,59.59448,-12.1669,6220.729,24644.9
1465,73.25,-12.20837,-0.4196733,0.01135726,0,0,0,0,0,12.20824,45.04885,0.4196733,0,59.87255,-12.20837,6240.945,24709.6
1470,73.5,-12.25037,-0.4203442,0.01137542,0,0,0,0,0,12.25024,45.20383,0.4203442,0,60.15498,-12.25037,6233.292,24664.2
1475,73.75,-12.2921,-0.42328,0.01145487,0,0,0,0,0,12.29197,45.35782,0.42328,0,60.43641,-12.2921,6259.189,24752.2
1480,74.0,-12.3333,-0.4237708,0.01146815,0,0,0,0,0,12.33317,45.50985,0.4237708,0,60.71503,-12.3333,6249.01,24698.1
1485,74.25,-12.3753,-0.4266245,0.01154537,0,0,0,0,0,12.37517,45.66483,0.4266245,0,60.99985,-12.3753,6273.199,24780
1490,74.5,-12.4169,-0.4276326,0.01157266,0,0,0,0,0,12.41677,45.81834,0.4276326,0,61.28276,-12.4169,6270.258,24755.4
1495,74.75,-12.45837,-0.4305218,0.01165084,0,0,0,0,0,12.45824,45.97135,0.4305218,0,61.56557,-12.45837,6294.793,24839.7
1500,75.0,-12.50024,-0.4314538,0.01167607,0,0,0,0,0,12.5001,46.12584,0.4314538,0,61.85192,-12.50024,6290.383,24810.1
1505,75.25,-12.5417,-0.4336917,0.01173663,0,0,0,0,0,12.54157,46.27885,0.4336917,0,62.13635,-12.5417,6305.051,24856.3
1510,75.5,-12.58357,-0.4349909,0.01177179,0,0,0,0,0,12.58344,46.43335,0.4349909,0,62.42434,-12.58357,6305.753,24847.8
1515,75.75,-12.6249,-0.4372338,0.01183249,0,0,0,0,0,12.62477,46.58587,0.4372338,0,62.70948,-12.6249,6320.22,24894.2
1520,76.0,-12.6669,-0.4387669,0.01187397,0,0,0,0,0,12.66677,46.74084,0.4387669,0,63.00005,-12.6669,6323.978,24898.6
1525,76.25,-12.70864,-0.440166,0.01191184,0,0,0,0,0,12.7085,46.89484,0.440166,0,63.28962,-12.70864,6325.8,24896
1530,76.5,-12.74997,-0.4432956,0.01199653,0,0,0,0,0,12.74984,47.04736,0.4432956,0,63.57723,-12.74997,6352.479,24991.7
1535,76.75,-12.79197,-0.4433802,0.01199882,0,0,0,0,0,12.79184,47.20235,0.4433802,0,63.87034,-12.79197,6335.096,24914.4
1540,77.0,-12.8337,-0.4463108,0.01207813,0,0,0,0,0,12.83357,47.35634,0.4463108,0,64.16244,-12.8337,6358.368,24997.5
1545,77.25,-12.87517,-0.4478635,0.01212015,0,0,0,0,0,12.87503,47.50935,0.4478635,0,64.45352,-12.87517,6361.944,25003.7
1550,77.5,-12.91677,-0.4495627,0.01216613,0,0,0,0,0,12.91664,47.66286,0.4495627,0,64.7464,-12.91677,6367.405,25017.7
1555,77.75,-12.95863,-0.4522872,0.01223986,0,0,0,0,0,12.9585,47.81735,0.4522873,0,65.04201,-12.95863,6387.086,25088.1
1560,78.0,-13.0001,-0.4535377,0.0122737,0,0,0,0,0,12.99997,47.97036,0.4535377,0,65.33567,-13.0001,6385.963,25077.2
1565,78.25,-13.0417,-0.4566732,0.01235856,0,0,0,0,0,13.04157,48.12387,0.4566732,0,65.63114,-13.0417,6411.142,25170
1570,78.5,-13.08384,-0.4576058,0.0123838,0,0,0,0,0,13.0837,48.27934,0.4576058,0,65.93129,-13.08384,6404.98,25140.2
1575,78.75,-13.12503,-0.460731,0.01246837,0,0,0,0,0,13.1249,48.43137,0.460731,0,66.22566,-13.12503,6429.767,25232.4
1580,79.0,-13.16677,-0.4621268,0.01250614,0,0,0,0,0,13.16663,48.58537,0.4621268,0,66.52474,-13.16677,6429.988,25228.6
1585,79.25,-13.2085,-0.4645873,0.01257273,0,0,0,0,0,13.20837,48.73936,0.4645873,0,66.82471,-13.2085,6444.861,25282.8
1590,79.5,-13.24997,-0.4664072,0.01262198,0,0,0,0,0,13.24983,48.89238,0.4664072,0,67.12365,-13.24997,6450.795,25302.4
1595,79.75,-13.29183,-0.4687231,0.01268465,0,0,0,0,0,13.2917,49.04687,0.4687231,0,67.42639,-13.29183,6463.228,25348
1600,80.0,-13.33357,-0.4707815,0.01274036,0,0,0,0,0,13.33343,49.20086,0.4707815,0,67.72908,-13.33357,6471.992,25379.6
1605,80.25,-13.37503,-0.473568,0.01281577,0,0,0,0,0,13.3749,49.35387,0.473568,0,68.03074,-13.37503,6490.689,25450.7
1610,80.50001,-13.4169,-0.475567,0.01286987,0,0,0,0,0,13.41677,49.50837,0.475567,0,68.33625,-13.4169,6498.205,25478.3
1615,80.75001,-13.45837,-0.4786556,0.01295345,0,0,0,0,0,13.45823,49.66138,0.4786556,0,68.63976,-13.45837,6520.586,25564.8
1620,81.00001,-13.50037,-0.4804211,0.01300123,0,0,0,0,0,13.50023,49.81636,0.4804211,0,68.94811,-13.50037,6524.489,25579.3
1625,81.25001,-13.54197,-0.4833192,0.01307965,0,0,0,0,0,13.54183,49.96986,0.4833192,0,69.25447,-13.54197,6543.769,25654.5
1630,81.50001,-13.58357,-0.4857597,0.0131457,0,0,0,0,0,13.58343,50.12337,0.4857597,0,69.56177,-13.58357,6556.632,25705.1
1635,81.75001,-13.6253,-0.4881202,0.01320958,0,0,0,0,0,13.62517,50.27737,0.4881202,0,69.871,-13.6253,6568.151,25750.9
1640,82.00001,-13.66663,-0.4906209,0.01327725,0,0,0,0,0,13.6665,50.42989,0.4906209,0,70.17822,-13.66663,6581.549,25804.5
1645,82.25001,-13.7085,-0.49316,0.01334597,0,0,0,0,0,13.70837,50.58438,0.49316,0,70.49036,-13.7085,6594.993,25858.9
1650,82.50001,-13.75023,-0.4962036,0.01342834,0,0,0,0,0,13.7501,50.73837,0.4962036,0,70.80247,-13.75023,6615.017,25939.5
1655,82.75001,-13.7917,-0.4984746,0.01348979,0,0,0,0,0,13.79157,50.89139,0.4984746,0,71.11357,-13.7917,6624.65,25979.8
1660,83.00001,-13.8337,-0.5022767,0.01359269,0,0,0,0,0,13.83357,51.04637,0.5022767,0,71.42967,-13.8337,6654.113,26098.5
1665,83.25001,-13.87543,-0.5040223,0.01363993,0,0,0,0,0,13.8753,51.20037,0.5040223,0,71.74474,-13.87543,6656.234,26110.5
1670,83.50001,-13.91703,-0.507949,0.01374619,0,0,0,0,0,13.9169,51.35387,0.507949,0,72.05979,-13.91703,6686.99,26235.2
1675,83.75001,-13.95837,-0.5092756,0.01378209,0,0,0,0,0,13.95823,51.50639,0.5092756,0,72.37382,-13.95837,6683.433,26225.9
1680,84.00001,-14.0005,-0.5138924,0.01390703,0,0,0,0,0,14.00037,51.66187,0.5138924,0,72.69494,-14.0005,6722.399,26384
1685,84.25001,-14.04183,-0.5152475,0.0139437,0,0,0,0,0,14.0417,51.81439,0.5152475,0,73.01097,-14.04183,6718.859,26375.7
1690,84.50001,-14.08343,-0.5203271,0.01408117,0,0,0,0,0,14.0833,51.96789,0.5203271,0,73.33005,-14.08343,6763.482,26557
1695,84.75001,-14.12543,-0.5220872,0.0141288,0,0,0,0,0,14.1253,52.12287,0.5220872,0,73.65322,-14.12543,6764.464,26567.6
1700,85.00001,-14.16677,-0.5259158,0.01423241,0,0,0,0,0,14.16663,52.2754,0.5259157,0,73.97231,-14.16677,6792.361,26684.4
1705,85.25001,-14.2085,-0.5292829,0.01432353,0,0,0,0,0,14.20836,52.42939,0.5292829,0,74.2955,-14.2085,6813.792,26776.3
1710,85.50001,-14.2501,-0.5320364,0.01439805,0,0,0,0,0,14.24997,52.5829,0.5320364,0,74.61872,-14.2501,6827.136,26837
1715,85.75001,-14.29183,-0.5356475,0.01449577,0,0,0,0,0,14.2917,52.73689,0.5356475,0,74.94402,-14.29183,6851.151,26940.3
1720,86.00001,-14.3337,-0.5391962,0.01459181,0,0,0,0,0,14.33356,52.89138,0.5391962,0,75.27143,-14.3337,6873.999,27039.6
1725,86.25001,-14.37517,-0.5418002,0.01466228,0,0,0,0,0,14.37503,53.0444,0.5418002,0,75.59677,-14.37517,6884.76,27091.8
1730,86.50001,-14.41703,-0.546003,0.01477601,0,0,0,0,0,14.4169,53.19889,0.546003,0,75.92632,-14.41703,6915.339,27222.7
1735,86.75001,-14.45863,-0.5493923,0.01486774,0,0,0,0,0,14.4585,53.35239,0.5493923,0,76.25485,-14.45863,6935.443,27312.8
1740,87.00001,-14.50023,-0.5529436,0.01496384,0,0,0,0,0,14.5001,53.5059,0.5529436,0,76.58447,-14.50023,6957.304,27410.5
1745,87.25001,-14.54183,-0.5561173,0.01504973,0,0,0,0,0,14.5417,53.6594,0.5561173,0,76.91517,-14.54183,6974.134,27489
1750,87.50001,-14.58343,-0.5604775,0.01516773,0,0,0,0,0,14.5833,53.81291,0.5604776,0,77.24698,-14.58343,7005.531,27625.5
1755,87.75001,-14.62516,-0.5636098,0.01525249,0,0,0,0,0,14.62503,53.9669,0.5636098,0,77.58095,-14.62516,7021.195,27700.6
1760,88.00001,-14.6669,-0.5673462,0.01535361,0,0,0,0,0,14.66676,54.1209,0.5673462,0,77.91605,-14.6669,7044.096,27804.9
1765,88.25001,-14.70836,-0.5709556,0.01545129,0,0,0,0,0,14.70823,54.27391,0.5709556,0,78.25013,-14.70836,7065.268,27902.9
1770,88.50001,-14.74996,-0.5740676,0.0155355,0,0,0,0,0,14.74983,54.42742,0.5740676,0,78.58639,-14.74996,7079.929,27975.9
1775,88.75001,-14.79183,-0.5780585,0.01564351,0,0,0,0,0,14.7917,54.58191,0.5780585,0,78.92597,-14.79183,7104.981,28090.6
1780,89.00001,-14.8337,-0.581463,0.01573564,0,0,0,0,0,14.83356,54.7364,0.581463,0,79.2667,-14.8337,7122.516,28176.3
1785,89.25001,-14.87503,-0.5854006,0.0158422,0,0,0,0,0,14.8749,54.88892,0.5854006,0,79.60423,-14.87503,7146.586,28288.3
1790,89.50001,-14.91703,-0.5892329,0.01594591,0,0,0,0,0,14.9169,55.0439,0.5892329,0,79.94837,-14.91703,7168.658,28393.3
1795,89.75001,-14.95863,-0.5930578,0.01604942,0,0,0,0,0,14.9585,55.19741,0.5930578,0,80.29042,-14.95863,7190.555,28498.1
1800,90.00001,-14.99996,-0.5967888,0.01615039,0,0,0,0,0,14.99983,55.34993,0.5967888,0,80.63142,-14.99996,7211.159,28598.4
1805,90.25001,-15.0421,-0.6006406,0.01625462,0,0,0,0,0,15.04196,55.5054,0.6006405,0,80.98023,-15.0421,7232.43,28702.4
1806,90.258,-15.04343,-0.6008191,0.01625946,0,0,0,0,0,15.0433,55.51032,0.6008191,0,80.99129,-15.04343,7233.78,28708.3