File: GFBaking/em/xg7.csv
,Time sec,Extension mm,Load kgf,Compressive stress MPa,Cycle Count ,Total Cycle Count ,Repetitions Count ,Marked Data ,PIP Count ,Compressive extension mm,Compressive strain %,Compressive load kgf,Displacement (Strain 1) mm,True strain %,Corrected Position mm,True stress Pa,Elastic Modulus
0,0.0,-0.000133333,-0.0061036,0.00016798,0,0,0,0,0,0.0,0.0,0.006103599,0,0.0,-0.000133333,167.98,inf
5,0.25,-0.03479992,-0.006928323,0.0001906776,0,0,0,0,0,0.03466658,0.1289679,0.006928323,0,0.1290512,-0.03479992,190.4317,143656
10,0.5,-0.08173313,-0.009374804,0.0002580084,0,0,0,0,0,0.0815998,0.3035707,0.009374804,0,0.3040324,-0.08173313,257.2251,82581.1
15,0.7500001,-0.1250664,-0.01045137,0.0002876371,0,0,0,0,0,0.124933,0.4647806,0.01045137,0,0.4658641,-0.1250664,286.3002,60131.7
20,1.0,-0.1666663,-0.01223462,0.0003367147,0,0,0,0,0,0.1665329,0.6195421,0.01223462,0,0.6214692,-0.1666663,334.6286,52807.8
25,1.25,-0.2085328,-0.01369196,0.0003768228,0,0,0,0,0,0.2083995,0.7752957,0.01369196,0,0.7783168,-0.2085328,373.9013,47225.5
30,1.5,-0.2503994,-0.01480717,0.0004075152,0,0,0,0,0,0.250266,0.9310493,0.01480717,0,0.9354106,-0.2503994,403.721,42528.2
35,1.75,-0.2917326,-0.01647336,0.0004533709,0,0,0,0,0,0.2915993,1.084819,0.01647336,0,1.090746,-0.2917326,448.4527,40607.2
40,2.0,-0.3335992,-0.0178167,0.0004903418,0,0,0,0,0,0.3334659,1.240572,0.0178167,0,1.248332,-0.3335992,484.2588,38404.6
45,2.25,-0.3754658,-0.01967402,0.0005414579,0,0,0,0,0,0.3753324,1.396326,0.01967402,0,1.406166,-0.3754658,533.8974,37677.7
50,2.5,-0.4170657,-0.02091546,0.0005756241,0,0,0,0,0,0.4169323,1.551087,0.02091546,0,1.563243,-0.4170657,566.6957,36058.6
55,2.75,-0.4582655,-0.02250885,0.0006194765,0,0,0,0,0,0.4581322,1.704361,0.02250885,0,1.719052,-0.4582655,608.9184,35315.9
60,3.0,-0.5003988,-0.02399883,0.000660483,0,0,0,0,0,0.5002655,1.861107,0.02399883,0,1.878643,-0.5003988,648.1907,34482.3
65,3.25,-0.5419987,-0.02620119,0.0007210953,0,0,0,0,0,0.5418653,2.015868,0.02620119,0,2.036464,-0.5419987,706.559,34756.6
70,3.5,-0.5834653,-0.02726373,0.0007503378,0,0,0,0,0,0.5833319,2.170134,0.02726373,0,2.194027,-0.5834653,734.0545,33595.2
75,3.75,-0.6253318,-0.02938085,0.000808604,0,0,0,0,0,0.6251985,2.325887,0.02938085,0,2.353363,-0.6253318,789.7968,33779.5
80,4.0,-0.6667984,-0.03114811,0.0008572417,0,0,0,0,0,0.666665,2.480153,0.03114811,0,2.511427,-0.6667984,835.9808,33583.9
85,4.25,-0.7083983,-0.03290787,0.0009056729,0,0,0,0,0,0.708265,2.634914,0.03290787,0,2.67025,-0.7083983,881.8092,33397.3
90,4.5,-0.7503981,-0.0346596,0.0009538832,0,0,0,0,0,0.7502648,2.791164,0.0346596,0,2.830857,-0.7503981,927.2587,33206
95,4.75,-0.7918648,-0.03637727,0.001001156,0,0,0,0,0,0.7917314,2.945429,0.03637727,0,2.989678,-0.7918648,971.6675,33026.3
100,5.0,-0.8337313,-0.03825364,0.001052796,0,0,0,0,0,0.833598,3.101183,0.03825364,0,3.150287,-0.8337313,1020.147,32985.5
105,5.25,-0.8750645,-0.04009933,0.001103592,0,0,0,0,0,0.8749312,3.254952,0.04009933,0,3.309104,-0.8750645,1067.671,32943.6
110,5.5,-0.9170644,-0.04185699,0.001151966,0,0,0,0,0,0.9169311,3.411202,0.04185699,0,3.470741,-0.9170644,1112.67,32812.4
115,5.75,-0.9586643,-0.04376398,0.001204449,0,0,0,0,0,0.958531,3.565964,0.04376398,0,3.631097,-0.9586643,1161.499,32818.4
120,6.0,-0.9999976,-0.0455804,0.00125444,0,0,0,0,0,0.9998643,3.719733,0.0455804,0,3.79068,-0.9999976,1207.778,32767.6
125,6.25,-1.041997,-0.04765084,0.001311421,0,0,0,0,0,1.041864,3.875983,0.04765084,0,3.953098,-1.041997,1260.591,32875.1
130,6.5,-1.083597,-0.04891202,0.001346131,0,0,0,0,0,1.083464,4.030745,0.04891201,0,4.11423,-1.083597,1291.871,32449.5
135,6.75,-1.125197,-0.05062593,0.0013933,0,0,0,0,0,1.125064,4.185506,0.05062593,0,4.275622,-1.125197,1334.983,32344.7
140,7.0,-1.167064,-0.05303496,0.0014596,0,0,0,0,0,1.166931,4.341259,0.05303496,0,4.438311,-1.167064,1396.235,32668.1
145,7.25,-1.20853,-0.0541071,0.001489107,0,0,0,0,0,1.208397,4.495525,0.0541071,0,4.599708,-1.20853,1422.164,32184.9
150,7.5,-1.25013,-0.05662855,0.001558501,0,0,0,0,0,1.249997,4.650286,0.05662855,0,4.761886,-1.25013,1486.026,32563.7
155,7.75,-1.291997,-0.05796957,0.001595408,0,0,0,0,0,1.291864,4.80604,0.05796957,0,4.925369,-1.291997,1518.732,32254.5
160,8.0,-1.33373,-0.05988565,0.001648141,0,0,0,0,0,1.333597,4.961298,0.05988564,0,5.088598,-1.33373,1566.372,32277.9
165,8.25,-1.375063,-0.06193027,0.001704412,0,0,0,0,0,1.37493,5.115067,0.06193027,0,5.250526,-1.375063,1617.23,32376.5
170,8.5,-1.41693,-0.06273766,0.001726632,0,0,0,0,0,1.416797,5.270821,0.06273766,0,5.414811,-1.41693,1635.625,31829.4
175,8.75,-1.458796,-0.066071,0.001818371,0,0,0,0,0,1.458663,5.426574,0.066071,0,5.579366,-1.458796,1719.696,32558.4
180,9.0,-1.499996,-0.06667104,0.001834885,0,0,0,0,0,1.499863,5.579847,0.06667104,0,5.741566,-1.499996,1732.501,31951.6
185,9.25,-1.54213,-0.06945567,0.001911522,0,0,0,0,0,1.541996,5.736593,0.06945567,0,5.907712,-1.54213,1801.866,32376.6
190,9.5,-1.583596,-0.07093514,0.001952239,0,0,0,0,0,1.583463,5.890859,0.07093515,0,6.0715,-1.583596,1837.236,32200.4
195,9.75,-1.625196,-0.07260238,0.001998124,0,0,0,0,0,1.625063,6.04562,0.07260238,0,6.236085,-1.625196,1877.325,32113.5
200,10.0,-1.666929,-0.07503009,0.002064938,0,0,0,0,0,1.666796,6.200878,0.0750301,0,6.401469,-1.666929,1936.894,32356.4
205,10.25,-1.708529,-0.0758236,0.002086777,0,0,0,0,0,1.708396,6.355639,0.07582361,0,6.566598,-1.708529,1954.149,31902.4
210,10.5,-1.750262,-0.07852163,0.00216103,0,0,0,0,0,1.750129,6.510897,0.07852162,0,6.73253,-1.750262,2020.328,32249.8
215,10.75,-1.791596,-0.07950244,0.002188024,0,0,0,0,0,1.791462,6.664666,0.07950244,0,6.897144,-1.791596,2042.199,31899.2
220,11.0,-1.833596,-0.08181895,0.002251778,0,0,0,0,0,1.833462,6.820916,0.08181895,0,7.064691,-1.833596,2098.186,32076.7
225,11.25,-1.875329,-0.08337961,0.002294729,0,0,0,0,0,1.875195,6.976173,0.08337961,0,7.231453,-1.875329,2134.645,31961
230,11.5,-1.916662,-0.08515799,0.002343673,0,0,0,0,0,1.916529,7.129943,0.08515798,0,7.396891,-1.916662,2176.57,31938.7
235,11.75,-1.958662,-0.08676001,0.002387763,0,0,0,0,0,1.958529,7.286193,0.08676001,0,7.565278,-1.958662,2213.786,31841.7
240,12.0,-2.000395,-0.08862956,0.002439216,0,0,0,0,0,2.000262,7.441451,0.08862956,0,7.732878,-2.000395,2257.702,31849.2
245,12.25,-2.041728,-0.09006783,0.002478799,0,0,0,0,0,2.041595,7.59522,0.09006783,0,7.899147,-2.041728,2290.529,31710.8
250,12.5,-2.083595,-0.09187457,0.002528523,0,0,0,0,0,2.083462,7.750973,0.09187458,0,8.067845,-2.083595,2332.538,31696.9
255,12.75,-2.125328,-0.09369017,0.002578491,0,0,0,0,0,2.125195,7.906231,0.09369016,0,8.236289,-2.125328,2374.629,31688.6
260,13.0,-2.166928,-0.09501332,0.002614906,0,0,0,0,0,2.166795,8.060992,0.09501332,0,8.404478,-2.166928,2404.119,31519.1
265,13.25,-2.208395,-0.09682944,0.002664889,0,0,0,0,0,2.208261,8.215258,0.09682944,0,8.572411,-2.208395,2445.961,31518.4
270,13.5,-2.250261,-0.09842381,0.002708768,0,0,0,0,0,2.250128,8.371011,0.09842381,0,8.742249,-2.250261,2482.016,31441.3
275,13.75,-2.291728,-0.1000997,0.002754892,0,0,0,0,0,2.291595,8.525277,0.1000997,0,8.91075,-2.291728,2520.03,31398
280,14.0,-2.333461,-0.1017295,0.002799745,0,0,0,0,0,2.333328,8.680534,0.1017295,0,9.080622,-2.333461,2556.712,31338.5
285,14.25,-2.375328,-0.1034811,0.002847952,0,0,0,0,0,2.375194,8.836287,0.1034811,0,9.251326,-2.375328,2596.299,31316.2
290,14.5,-2.416794,-0.1048692,0.002886155,0,0,0,0,0,2.416661,8.990554,0.1048692,0,9.420688,-2.416794,2626.674,31191.7
295,14.75,-2.458527,-0.1066617,0.002935488,0,0,0,0,0,2.458394,9.145811,0.1066617,0,9.591428,-2.458527,2667.014,31186.3
300,15.0,-2.500394,-0.1081784,0.002977229,0,0,0,0,0,2.500261,9.301564,0.1081784,0,9.763008,-2.500394,2700.3,31100.2
305,15.25,-2.541861,-0.1098094,0.003022115,0,0,0,0,0,2.541727,9.455831,0.1098094,0,9.933239,-2.541861,2736.349,31054
310,15.5,-2.583594,-0.1114838,0.003068198,0,0,0,0,0,2.58346,9.611088,0.1114838,0,10.10486,-2.583594,2773.31,31018.3
315,15.75,-2.625194,-0.1130488,0.003111268,0,0,0,0,0,2.62506,9.765849,0.1130488,0,10.27622,-2.625194,2807.426,30955.2
320,16.0,-2.66706,-0.1146476,0.00315527,0,0,0,0,0,2.666927,9.921602,0.1146476,0,10.44898,-2.66706,2842.217,30900.2
325,16.25,-2.708393,-0.1162847,0.003200326,0,0,0,0,0,2.70826,10.07537,0.1162847,0,10.61983,-2.708393,2877.881,30863.1
330,16.5,-2.750127,-0.1177599,0.003240924,0,0,0,0,0,2.749993,10.23063,0.1177599,0,10.79264,-2.750127,2909.357,30780.3
335,16.75,-2.792126,-0.1194034,0.003286158,0,0,0,0,0,2.791993,10.38688,0.1194034,0,10.96684,-2.792126,2944.828,30740.4
340,17.0,-2.833326,-0.1208601,0.003326247,0,0,0,0,0,2.833193,10.54015,0.1208601,0,11.13803,-2.833326,2975.655,30663
345,17.25,-2.875326,-0.1223761,0.003367969,0,0,0,0,0,2.875193,10.6964,0.1223761,0,11.31284,-2.875326,3007.718,30594
350,17.5,-2.917059,-0.1238644,0.00340893,0,0,0,0,0,2.916926,10.85166,0.1238644,0,11.48685,-2.917059,3039.004,30523.1
355,17.75,-2.958526,-0.1252329,0.003446594,0,0,0,0,0,2.958393,11.00593,0.1252329,0,11.66004,-2.958526,3067.264,30427.8
360,18.0,-3.000126,-0.1266722,0.003486205,0,0,0,0,0,2.999993,11.16069,0.1266722,0,11.83409,-3.000126,3097.121,30350.7
365,18.25,-3.041993,-0.128317,0.003531473,0,0,0,0,0,3.041859,11.31644,0.128317,0,12.00957,-3.041993,3131.835,30321.6
370,18.5,-3.083593,-0.1295652,0.003565824,0,0,0,0,0,3.083459,11.4712,0.1295652,0,12.18423,-3.083593,3156.781,30203.5
375,18.75,-3.124926,-0.1312175,0.003611298,0,0,0,0,0,3.124793,11.62497,0.1312175,0,12.35808,-3.124926,3191.486,30184.1
380,19.0,-3.167059,-0.1325109,0.003646893,0,0,0,0,0,3.166926,11.78172,0.1325109,0,12.5356,-3.167059,3217.227,30076.1
385,19.25,-3.208659,-0.1340136,0.003688252,0,0,0,0,0,3.208525,11.93648,0.1340136,0,12.71118,-3.208659,3248.005,30022.8
390,19.5,-3.249992,-0.1353059,0.003723816,0,0,0,0,0,3.249859,12.09025,0.1353059,0,12.88594,-3.249992,3273.598,29926.7
395,19.75,-3.291992,-0.1367877,0.003764599,0,0,0,0,0,3.291859,12.2465,0.1367877,0,13.06384,-3.291992,3303.567,29868.5
400,20.0,-3.333592,-0.1380751,0.003800029,0,0,0,0,0,3.333458,12.40126,0.1380751,0,13.24036,-3.333592,3328.778,29773.3
405,20.25,-3.375192,-0.1393866,0.003836124,0,0,0,0,0,3.375058,12.55602,0.1393866,0,13.41718,-3.375192,3354.46,29685.7
410,20.5,-3.417058,-0.1408005,0.003875036,0,0,0,0,0,3.416925,12.71177,0.1408005,0,13.59546,-3.417058,3382.45,29619.4
415,20.75,-3.458525,-0.1420887,0.00391049,0,0,0,0,0,3.458392,12.86604,0.1420887,0,13.77235,-3.458525,3407.365,29532
420,21.0,-3.500391,-0.1433459,0.00394509,0,0,0,0,0,3.500258,13.02179,0.1433459,0,13.95126,-3.500391,3431.369,29436.9
425,21.25,-3.541725,-0.1448984,0.003987817,0,0,0,0,0,3.541591,13.17556,0.1448984,0,14.12821,-3.541725,3462.4,29408.5
430,21.5,-3.583591,-0.1458635,0.004014378,0,0,0,0,0,3.583458,13.33132,0.1458635,0,14.30776,-3.583591,3479.208,29258.5
435,21.75,-3.625191,-0.147268,0.004053031,0,0,0,0,0,3.625058,13.48608,0.147268,0,14.48648,-3.625191,3506.436,29201.2
440,22.0,-3.666791,-0.1484079,0.004084402,0,0,0,0,0,3.666658,13.64084,0.1484079,0,14.66553,-3.666791,3527.255,29093.4
445,22.25,-3.708658,-0.1496691,0.004119113,0,0,0,0,0,3.708524,13.79659,0.1496691,0,14.84605,-3.708658,3550.815,29009.4
450,22.5,-3.750257,-0.1509639,0.004154748,0,0,0,0,0,3.750124,13.95135,0.1509639,0,15.02574,-3.750257,3575.104,28935.8
455,22.75,-3.791858,-0.1521374,0.004187045,0,0,0,0,0,3.791724,14.10612,0.1521374,0,15.20576,-3.791858,3596.415,28840.8
460,23.0,-3.833724,-0.1532171,0.004216759,0,0,0,0,0,3.833591,14.26187,0.1532171,0,15.38725,-3.833724,3615.371,28728.2
465,23.25,-3.875191,-0.1541697,0.004242978,0,0,0,0,0,3.875057,14.41614,0.1541697,0,15.56734,-3.875191,3631.304,28597.5
470,23.5,-3.916791,-0.1556197,0.004282882,0,0,0,0,0,3.916657,14.5709,0.1556197,0,15.74834,-3.916791,3658.828,28559.9
475,23.75,-3.958657,-0.1568291,0.004316166,0,0,0,0,0,3.958524,14.72665,0.1568291,0,15.93082,-3.958657,3680.539,28477.4
480,24.0,-4.00039,-0.1578948,0.004345497,0,0,0,0,0,4.000257,14.88191,0.1578948,0,16.11306,-4.00039,3698.804,28371.8
485,24.25,-4.041723,-0.1592948,0.004384028,0,0,0,0,0,4.04159,15.03568,0.1592948,0,16.29388,-4.041723,3724.86,28330.7
490,24.5,-4.083723,-0.1599671,0.004402531,0,0,0,0,0,4.08359,15.19193,0.1599671,0,16.47795,-4.083723,3733.701,28157.6
495,24.75,-4.125457,-0.1613384,0.00444027,0,0,0,0,0,4.125323,15.34719,0.1613384,0,16.66118,-4.125457,3758.814,28111.7
500,25.0,-4.16679,-0.1620848,0.004460811,0,0,0,0,0,4.166656,15.50095,0.1620848,0,16.843,-4.16679,3769.342,27961.6
505,25.25,-4.20879,-0.163741,0.004506391,0,0,0,0,0,4.208656,15.6572,0.163741,0,17.02808,-4.20879,3800.817,27965.4
510,25.5,-4.250256,-0.1642688,0.004520918,0,0,0,0,0,4.250123,15.81147,0.1642688,0,17.21115,-4.250256,3806.094,27781.8
515,25.75,-4.291856,-0.1651019,0.004543846,0,0,0,0,0,4.291723,15.96623,0.1651019,0,17.39515,-4.291856,3818.366,27652.1
520,26.0,-4.33359,-0.1657252,0.004561,0,0,0,0,0,4.333456,16.12149,0.1657252,0,17.58007,-4.33359,3825.699,27489.2
525,26.25,-4.37519,-0.1678045,0.004618225,0,0,0,0,0,4.375056,16.27625,0.1678045,0,17.76475,-4.37519,3866.551,27569.4
530,26.5,-4.416923,-0.1679127,0.004621204,0,0,0,0,0,4.416789,16.43151,0.1679127,0,17.95036,-4.416923,3861.87,27326.5
535,26.75,-4.458389,-0.16922,0.004657184,0,0,0,0,0,4.458256,16.58577,0.16922,0,18.13513,-4.458389,3884.754,27283.1
540,27.0,-4.500256,-0.1695487,0.004666229,0,0,0,0,0,4.500123,16.74153,0.1695487,0,18.32203,-4.500256,3885.031,27081.8
545,27.25,-4.541989,-0.1712045,0.004711799,0,0,0,0,0,4.541855,16.89678,0.1712045,0,18.50868,-4.541989,3915.657,27095
550,27.5,-4.583322,-0.1716377,0.004723723,0,0,0,0,0,4.583189,17.05055,0.1716377,0,18.69388,-4.583322,3918.302,26918.6
555,27.75,-4.625455,-0.1731804,0.004766179,0,0,0,0,0,4.625322,17.2073,0.1731804,0,18.88303,-4.625455,3946.048,26913.1
560,28.0,-4.667055,-0.1733817,0.00477172,0,0,0,0,0,4.666922,17.36206,0.1733817,0,19.07013,-4.667055,3943.251,26704.2
565,28.25,-4.708255,-0.1747379,0.004809043,0,0,0,0,0,4.708122,17.51534,0.1747379,0,19.25578,-4.708255,3966.723,26677.6
570,28.5,-4.750389,-0.1750922,0.004818795,0,0,0,0,0,4.750256,17.67208,0.1750922,0,19.44599,-4.750389,3967.214,26494.6
575,28.75,-4.792122,-0.176345,0.004853272,0,0,0,0,0,4.791988,17.82734,0.176345,0,19.63475,-4.792122,3988.063,26451.8
580,29.0,-4.833588,-0.1766643,0.004862061,0,0,0,0,0,4.833455,17.9816,0.1766643,0,19.82266,-4.833588,3987.785,26272.3
585,29.25,-4.875188,-0.1776866,0.004890195,0,0,0,0,0,4.875054,18.13636,0.1776866,0,20.01153,-4.875188,4003.291,26198.9
590,29.5,-4.916921,-0.1774131,0.004882669,0,0,0,0,0,4.916788,18.29162,0.1774131,0,20.20136,-4.916921,3989.549,25936.5
595,29.75,-4.958388,-0.1799472,0.004952411,0,0,0,0,0,4.958255,18.44589,0.1799472,0,20.39034,-4.958388,4038.895,26087
600,30.0,-5.000255,-0.1793465,0.004935878,0,0,0,0,0,5.000121,18.60164,0.1793465,0,20.58151,-5.000255,4017.724,25782.2
605,30.25,-5.041988,-0.1804914,0.004967387,0,0,0,0,0,5.041854,18.7569,0.1804914,0,20.77243,-5.041988,4035.66,25732
610,30.5,-5.083321,-0.1816173,0.004998376,0,0,0,0,0,5.083188,18.91067,0.1816173,0,20.96188,-5.083321,4053.15,25682
615,30.75,-5.125187,-0.1820324,0.005009799,0,0,0,0,0,5.125054,19.06642,0.1820324,0,21.15414,-5.125187,4054.61,25530.4
620,31.0,-5.167054,-0.1832009,0.005041958,0,0,0,0,0,5.166921,19.22218,0.1832009,0,21.34677,-5.167054,4072.784,25486.1
625,31.25,-5.208521,-0.1834043,0.005047557,0,0,0,0,0,5.208387,19.37644,0.1834043,0,21.53793,-5.208521,4069.52,25311.2
630,31.5,-5.250254,-0.1846314,0.005081327,0,0,0,0,0,5.250121,19.5317,0.1846314,0,21.73068,-5.250254,4088.857,25278
635,31.75,-5.291854,-0.185277,0.005099094,0,0,0,0,0,5.29172,19.68646,0.185277,0,21.9232,-5.291854,4095.263,25167
640,32.0,-5.33372,-0.1855893,0.00510769,0,0,0,0,0,5.333587,19.84221,0.1855893,0,22.11731,-5.33372,4094.211,25011.6
645,32.25,-5.375187,-0.1865999,0.005135503,0,0,0,0,0,5.375054,19.99648,0.1865999,0,22.30995,-5.375187,4108.583,24953.8
650,32.5,-5.416787,-0.1870883,0.005148945,0,0,0,0,0,5.416654,20.15124,0.1870883,0,22.50359,-5.416787,4111.369,24826.9
655,32.75,-5.45892,-0.1876666,0.00516486,0,0,0,0,0,5.458787,20.30799,0.1876666,0,22.70008,-5.45892,4115.981,24711.4
660,33.0,-5.499986,-0.1889844,0.005201128,0,0,0,0,0,5.499853,20.46076,0.1889844,0,22.89197,-5.499986,4136.938,24699.2
665,33.25,-5.541853,-0.1889061,0.005198973,0,0,0,0,0,5.54172,20.61652,0.1889061,0,23.08799,-5.541853,4127.126,24502.4
670,33.5,-5.58372,-0.1900719,0.005231057,0,0,0,0,0,5.583586,20.77227,0.1900719,0,23.28438,-5.58372,4144.448,24468.8
675,33.75,-5.625186,-0.1903484,0.005238668,0,0,0,0,0,5.625053,20.92654,0.1903484,0,23.47928,-5.625186,4142.396,24323.7
680,34.0,-5.66692,-0.1915759,0.005272449,0,0,0,0,0,5.666786,21.08179,0.1915759,0,23.67582,-5.66692,4160.922,24300.3
685,34.25,-5.708653,-0.1915607,0.005272031,0,0,0,0,0,5.708519,21.23705,0.1915607,0,23.87275,-5.708653,4152.407,24120.7
690,34.5,-5.750386,-0.1926817,0.005302885,0,0,0,0,0,5.750253,21.39231,0.1926817,0,24.07007,-5.750386,4168.475,24085.8
695,34.75,-5.791719,-0.1930633,0.005313385,0,0,0,0,0,5.791586,21.54608,0.1930633,0,24.26587,-5.791719,4168.559,23961.3
700,35.0,-5.833586,-0.1942737,0.005346699,0,0,0,0,0,5.833453,21.70183,0.1942737,0,24.4646,-5.833586,4186.367,23938.4
705,35.25,-5.875319,-0.1945665,0.005354755,0,0,0,0,0,5.875185,21.85709,0.1945665,0,24.66308,-5.875319,4184.361,23804.2
710,35.5,-5.916652,-0.195303,0.005375025,0,0,0,0,0,5.916519,22.01086,0.195303,0,24.86006,-5.916652,4191.936,23727.4
715,35.75,-5.958652,-0.1957771,0.005388074,0,0,0,0,0,5.958519,22.16711,0.1957771,0,25.06061,-5.958652,4193.694,23617.3
720,36.0,-6.000252,-0.1963174,0.005402944,0,0,0,0,0,6.000119,22.32187,0.1963174,0,25.25964,-6.000252,4196.906,23518.3
725,36.25,-6.041852,-0.1970386,0.005422791,0,0,0,0,0,6.041718,22.47663,0.1970386,0,25.45908,-6.041852,4203.931,23442.2
730,36.5,-6.083719,-0.1973486,0.005431324,0,0,0,0,0,6.083585,22.63239,0.1973486,0,25.66019,-6.083719,4202.086,23317.5
735,36.75,-6.125185,-0.1978535,0.005445218,0,0,0,0,0,6.125052,22.78665,0.1978535,0,25.85978,-6.125185,4204.435,23218.9
740,37.0,-6.167052,-0.1984425,0.00546143,0,0,0,0,0,6.166919,22.94241,0.1984425,0,26.06171,-6.167052,4208.446,23129.9
745,37.25,-6.208385,-0.1986537,0.005467242,0,0,0,0,0,6.208251,23.09617,0.1986537,0,26.26146,-6.208385,4204.518,23000.4
750,37.5,-6.250385,-0.1990209,0.005477348,0,0,0,0,0,6.250252,23.25242,0.1990209,0,26.46484,-6.250385,4203.732,22888
755,37.75,-6.292118,-0.1992482,0.005483603,0,0,0,0,0,6.291985,23.40768,0.1992482,0,26.66734,-6.292118,4200.019,22762.2
760,38.0,-6.333718,-0.1996484,0.005494617,0,0,0,0,0,6.333584,23.56244,0.1996484,0,26.8696,-6.333718,4199.951,22658.1
765,38.25,-6.375451,-0.2000182,0.005504794,0,0,0,0,0,6.375318,23.7177,0.2000182,0,27.07293,-6.375451,4199.183,22551.5
770,38.5,-6.416918,-0.2004338,0.005516232,0,0,0,0,0,6.416784,23.87197,0.2004338,0,27.27536,-6.416918,4199.399,22452.3
775,38.75,-6.458518,-0.2009211,0.005529643,0,0,0,0,0,6.458385,24.02673,0.2009211,0,27.47886,-6.458518,4201.05,22361.9
780,39.0,-6.500384,-0.201316,0.005540513,0,0,0,0,0,6.500251,24.18248,0.201316,0,27.68408,-6.500384,4200.679,22261.6
785,39.25,-6.541851,-0.2017743,0.005553126,0,0,0,0,0,6.541718,24.33675,0.2017743,0,27.88776,-6.541851,4201.676,22170.8
790,39.5,-6.583451,-0.2022068,0.005565028,0,0,0,0,0,6.583318,24.49151,0.2022068,0,28.09251,-6.583451,4202.069,22077.9
795,39.75,-6.625317,-0.2025767,0.005575208,0,0,0,0,0,6.625184,24.64726,0.2025767,0,28.29899,-6.625317,4201.072,21978.5
800,40.0,-6.667051,-0.2031297,0.005590426,0,0,0,0,0,6.666917,24.80252,0.2031297,0,28.50524,-6.667051,4203.86,21900.6
805,40.25,-6.708384,-0.2035423,0.005601781,0,0,0,0,0,6.70825,24.95629,0.2035422,0,28.70994,-6.708384,4203.785,21809.8
810,40.5,-6.75025,-0.2037987,0.005608839,0,0,0,0,0,6.750117,25.11204,0.2037987,0,28.91771,-6.75025,4200.345,21701.9
815,40.75,-6.792117,-0.2041854,0.005619483,0,0,0,0,0,6.791983,25.2678,0.2041854,0,29.12591,-6.792117,4199.564,21609
820,41.0,-6.833317,-0.2044675,0.005627245,0,0,0,0,0,6.833184,25.42107,0.2044675,0,29.33122,-6.833317,4196.739,21508.4
825,41.25,-6.875317,-0.205012,0.005642232,0,0,0,0,0,6.875183,25.57732,0.205012,0,29.54094,-6.875317,4199.101,21434
830,41.5,-6.91705,-0.205168,0.005646525,0,0,0,0,0,6.916916,25.73258,0.205168,0,29.74978,-6.91705,4193.529,21320.8
835,41.75,-6.958516,-0.2058266,0.005664649,0,0,0,0,0,6.958383,25.88684,0.2058266,0,29.95771,-6.958516,4198.25,21261.8
840,42.0,-7.000249,-0.2060607,0.005671093,0,0,0,0,0,7.000116,26.0421,0.2060607,0,30.16742,-7.000249,4194.221,21159.1
845,42.25,-7.04185,-0.2062882,0.005677354,0,0,0,0,0,7.041717,26.19686,0.2062882,0,30.37689,-7.04185,4190.065,21057.3
850,42.5,-7.083716,-0.2064833,0.005682723,0,0,0,0,0,7.083583,26.35261,0.2064833,0,30.58815,-7.083716,4185.177,20952.7
855,42.75,-7.125049,-0.2068251,0.005692131,0,0,0,0,0,7.124916,26.50638,0.2068251,0,30.79716,-7.125049,4183.353,20865.6
860,43.0,-7.166916,-0.2071269,0.005700437,0,0,0,0,0,7.166783,26.66214,0.2071269,0,31.00932,-7.166916,4180.579,20774
865,43.25,-7.208649,-0.2073928,0.005707755,0,0,0,0,0,7.208516,26.81739,0.2073928,0,31.22124,-7.208649,4177.084,20680.2
870,43.5,-7.249982,-0.2075962,0.005713352,0,0,0,0,0,7.249848,26.97116,0.2075962,0,31.43158,-7.249982,4172.394,20582.5
875,43.75,-7.292116,-0.207893,0.005721521,0,0,0,0,0,7.291983,27.12791,0.207893,0,31.64645,-7.292116,4169.392,20492.8
880,44.0,-7.333849,-0.2079776,0.005723848,0,0,0,0,0,7.333715,27.28317,0.2079775,0,31.85973,-7.333849,4162.201,20384.5
885,44.25,-7.375048,-0.2082956,0.005732602,0,0,0,0,0,7.374915,27.43644,0.2082956,0,32.07073,-7.375048,4159.78,20301.6
890,44.5,-7.416915,-0.2086552,0.005742498,0,0,0,0,0,7.416781,27.59219,0.2086552,0,32.28561,-7.416915,4158.017,20221.9
895,44.75,-7.458782,-0.2089216,0.00574983,0,0,0,0,0,7.458648,27.74795,0.2089216,0,32.50094,-7.458782,4154.37,20134
900,45.0,-7.500248,-0.2094439,0.005764203,0,0,0,0,0,7.500115,27.90221,0.2094439,0,32.71469,-7.500248,4155.862,20072.8
905,45.25,-7.541848,-0.2098424,0.00577517,0,0,0,0,0,7.541715,28.05698,0.2098424,0,32.92957,-7.541848,4154.832,20000
910,45.5,-7.583715,-0.210366,0.005789582,0,0,0,0,0,7.583582,28.21273,0.210366,0,33.1463,-7.583715,4156.183,19939.2
915,45.75,-7.625181,-0.2106401,0.005797124,0,0,0,0,0,7.625048,28.36699,0.2106401,0,33.36142,-7.625181,4152.655,19856.6
920,46.0,-7.666781,-0.2110069,0.00580722,0,0,0,0,0,7.666648,28.52176,0.2110069,0,33.57771,-7.666781,4150.899,19783.3
925,46.25,-7.708781,-0.2112229,0.005813165,0,0,0,0,0,7.708648,28.67801,0.2112229,0,33.79654,-7.708781,4146.065,19695.6
930,46.5,-7.750114,-0.2117472,0.005827595,0,0,0,0,0,7.749981,28.83178,0.2117472,0,34.01238,-7.750114,4147.396,19639.2
935,46.75,-7.791981,-0.2122785,0.005842216,0,0,0,0,0,7.791848,28.98753,0.2122785,0,34.23147,-7.791981,4148.702,19582.7
940,47.0,-7.833715,-0.2127027,0.00585389,0,0,0,0,0,7.833581,29.14279,0.2127027,0,34.45034,-7.833715,4147.903,19517.3
945,47.25,-7.875181,-0.213461,0.005874761,0,0,0,0,0,7.875048,29.29705,0.213461,0,34.66829,-7.875181,4153.629,19483.8
950,47.5,-7.916914,-0.2141515,0.005893763,0,0,0,0,0,7.916781,29.45231,0.2141515,0,34.88813,-7.916914,4157.913,19443.7
955,47.75,-7.958514,-0.2149787,0.005916528,0,0,0,0,0,7.958381,29.60707,0.2149787,0,35.10774,-7.958514,4164.818,19416.8
960,48.0,-8.00038,-0.2163002,0.005952899,0,0,0,0,0,8.000247,29.76282,0.2163002,0,35.32924,-8.00038,4181.148,19433.9
965,48.25,-8.041847,-0.2163356,0.005953873,0,0,0,0,0,8.041715,29.91709,0.2163356,0,35.54912,-8.041847,4172.648,19336.9
970,48.5,-8.083447,-0.2177721,0.005993408,0,0,0,0,0,8.083314,30.07185,0.2177721,0,35.77019,-8.083447,4191.079,19365.1
975,48.75,-8.125447,-0.2180976,0.006002365,0,0,0,0,0,8.125314,30.2281,0.2180976,0,35.99389,-8.125447,4187.964,19293.8
980,49.0,-8.166781,-0.2194443,0.006039428,0,0,0,0,0,8.166648,30.38187,0.2194443,0,36.21452,-8.166781,4204.537,19314.7
985,49.25,-8.208513,-0.2200909,0.006057225,0,0,0,0,0,8.20838,30.53713,0.2200909,0,36.43778,-8.208513,4207.522,19273.1
990,49.5,-8.25038,-0.2216915,0.006101274,0,0,0,0,0,8.250247,30.69288,0.2216915,0,36.66226,-8.25038,4228.617,19314.8
995,49.75,-8.291713,-0.2220711,0.006111723,0,0,0,0,0,8.29158,30.84665,0.2220711,0,36.88437,-8.291713,4226.462,19251.4
1000,50.0,-8.33358,-0.223595,0.006153664,0,0,0,0,0,8.333447,31.00241,0.223595,0,37.10985,-8.33358,4245.88,19286.1
1005,50.25,-8.375446,-0.2243103,0.006173349,0,0,0,0,0,8.375313,31.15816,0.2243103,0,37.33585,-8.375446,4249.847,19251.1
1010,50.5,-8.416913,-0.2255001,0.006206094,0,0,0,0,0,8.41678,31.31242,0.2255001,0,37.56018,-8.416913,4262.816,19257.9
1015,50.75,-8.458246,-0.2260111,0.006220158,0,0,0,0,0,8.458114,31.46619,0.2260111,0,37.78431,-8.458246,4262.911,19207.2
1020,51.0,-8.50038,-0.2276546,0.00626539,0,0,0,0,0,8.500246,31.62294,0.2276546,0,38.01328,-8.50038,4284.089,19251
1025,51.25,-8.541979,-0.2280799,0.006277094,0,0,0,0,0,8.541845,31.7777,0.2280799,0,38.23987,-8.541979,4282.378,19193
1030,51.5,-8.583446,-0.2292097,0.006308188,0,0,0,0,0,8.583313,31.93197,0.2292097,0,38.46625,-8.583446,4293.859,19194.9
1035,51.75,-8.625579,-0.2300526,0.006331387,0,0,0,0,0,8.625446,32.08871,0.2300526,0,38.69679,-8.625579,4299.726,19171.4
1040,52.0,-8.666779,-0.2310333,0.006358377,0,0,0,0,0,8.666646,32.24199,0.2310333,0,38.92274,-8.666779,4308.31,19161.6
1045,52.25,-8.708512,-0.2318883,0.006381906,0,0,0,0,0,8.708379,32.39724,0.2318883,0,39.15214,-8.708512,4314.344,19140.3
1050,52.5,-8.750379,-0.2331983,0.00641796,0,0,0,0,0,8.750246,32.553,0.2331983,0,39.38281,-8.750379,4328.721,19156.3
1055,52.75,-8.791978,-0.2338033,0.00643461,0,0,0,0,0,8.791844,32.70776,0.2338033,0,39.61252,-8.791978,4329.993,19115.2
1060,53.0,-8.833579,-0.2348769,0.006464158,0,0,0,0,0,8.833446,32.86252,0.2348769,0,39.84277,-8.833579,4339.873,19112.5
1065,53.25,-8.875178,-0.2357826,0.006489084,0,0,0,0,0,8.875045,33.01728,0.2357826,0,40.07355,-8.875178,4346.565,19096.3
1070,53.5,-8.917045,-0.2369535,0.006521307,0,0,0,0,0,8.916912,33.17303,0.2369535,0,40.30635,-8.917045,4357.992,19101
1075,53.75,-8.958645,-0.2377987,0.00654457,0,0,0,0,0,8.958512,33.3278,0.2377988,0,40.53821,-8.958645,4363.409,19080.1
1080,54.0,-9.000111,-0.2388785,0.006574287,0,0,0,0,0,8.999977,33.48206,0.2388785,0,40.76985,-9.000111,4373.08,19078.4
1085,54.25,-9.042111,-0.2396227,0.00659477,0,0,0,0,0,9.041978,33.63831,0.2396227,0,41.00503,-9.042111,4376.401,19049
1090,54.5,-9.083444,-0.2408018,0.006627219,0,0,0,0,0,9.083311,33.79208,0.2408018,0,41.23701,-9.083444,4387.744,19055.6
1095,54.75,-9.125311,-0.241537,0.006647454,0,0,0,0,0,9.125177,33.94783,0.241537,0,41.47254,-9.125311,4390.787,19026.1
1100,55.0,-9.167044,-0.2425208,0.00667453,0,0,0,0,0,9.166911,34.10309,0.2425208,0,41.70787,-9.167044,4398.309,19016.6
1105,55.25,-9.208511,-0.2434346,0.006699678,0,0,0,0,0,9.208377,34.25735,0.2434346,0,41.94224,-9.208511,4404.545,19002.3
1110,55.5,-9.250111,-0.2442262,0.006721462,0,0,0,0,0,9.249978,34.41212,0.2442262,0,42.17793,-9.250111,4408.465,18978.4
1115,55.75,-9.291978,-0.2453245,0.006751692,0,0,0,0,0,9.291844,34.56787,0.2453246,0,42.41568,-9.291978,4417.775,18977.8
1120,56.0,-9.333711,-0.2462981,0.006778486,0,0,0,0,0,9.333578,34.72313,0.2462981,0,42.65325,-9.333711,4424.783,18967.9
1125,56.25,-9.375044,-0.2473262,0.006806781,0,0,0,0,0,9.374911,34.8769,0.2473262,0,42.88909,-9.375044,4432.786,18963.1
1130,56.5,-9.417044,-0.2481957,0.00683071,0,0,0,0,0,9.416911,35.03315,0.2481957,0,43.12931,-9.417044,4437.697,18944.9
1135,56.75,-9.458777,-0.2494214,0.006864442,0,0,0,0,0,9.458644,35.18841,0.2494214,0,43.36857,-9.458777,4448.954,18954.5
1140,57.0,-9.500111,-0.2503284,0.006889406,0,0,0,0,0,9.499977,35.34218,0.2503284,0,43.60611,-9.500111,4454.54,18940.6
1145,57.25,-9.54211,-0.2513377,0.006917184,0,0,0,0,0,9.541977,35.49843,0.2513377,0,43.84806,-9.54211,4461.692,18933.3
1150,57.5,-9.583577,-0.2523619,0.00694537,0,0,0,0,0,9.583444,35.65269,0.2523619,0,44.08751,-9.583577,4469.159,18928.2
1155,57.75,-9.62531,-0.2533972,0.006973865,0,0,0,0,0,9.625176,35.80795,0.2533973,0,44.32908,-9.62531,4476.666,18923.5
1160,58.0,-9.666909,-0.2542835,0.006998256,0,0,0,0,0,9.666776,35.96271,0.2542835,0,44.57046,-9.666909,4481.494,18907.9
1165,58.25,-9.70851,-0.2558434,0.007041186,0,0,0,0,0,9.708377,36.11747,0.2558434,0,44.81243,-9.70851,4498.087,18942.4
1170,58.5,-9.750243,-0.2560316,0.007046366,0,0,0,0,0,9.75011,36.27273,0.2560316,0,45.05576,-9.750243,4490.457,18875.2
1175,58.75,-9.791843,-0.2579416,0.007098931,0,0,0,0,0,9.79171,36.42749,0.2579416,0,45.29891,-9.791843,4512.968,18935.2
1180,59.0,-9.833576,-0.2583714,0.00711076,0,0,0,0,0,9.833443,36.58275,0.2583714,0,45.54343,-9.833576,4509.448,18886.3
1185,59.25,-9.87531,-0.2597792,0.007149505,0,0,0,0,0,9.875176,36.73801,0.2597792,0,45.78855,-9.87531,4522.92,18908.9
1190,59.5,-9.916776,-0.260555,0.007170856,0,0,0,0,0,9.916643,36.89227,0.260555,0,46.03269,-9.916776,4525.365,18886.1
1195,59.75,-9.958776,-0.2617878,0.007204786,0,0,0,0,0,9.958642,37.04852,0.2617878,0,46.28059,-9.958776,4535.519,18895.4
1200,60.0,-10.00038,-0.2627449,0.007231125,0,0,0,0,0,10.00024,37.20329,0.2627449,0,46.52674,-10.00038,4540.909,18885.6
1205,60.25,-10.04184,-0.2636579,0.007256254,0,0,0,0,0,10.04171,37.35755,0.263658,0,46.7727,-10.04184,4545.495,18873
1210,60.5,-10.08371,-0.2650196,0.007293728,0,0,0,0,0,10.08358,37.5133,0.2650196,0,47.02165,-10.08371,4557.61,18891.7
1215,60.75,-10.12531,-0.2659112,0.007318268,0,0,0,0,0,10.12517,37.66806,0.2659113,0,47.26962,-10.12531,4561.618,18877.4
1220,61.0,-10.16691,-0.2670939,0.007350816,0,0,0,0,0,10.16678,37.82283,0.2670939,0,47.51822,-10.16691,4570.53,18883.7
1225,61.25,-10.20851,-0.268248,0.007382579,0,0,0,0,0,10.20838,37.97759,0.268248,0,47.76744,-10.20851,4578.854,18888
1230,61.5,-10.25024,-0.2692313,0.007409641,0,0,0,0,0,10.25011,38.13284,0.2692313,0,48.01807,-10.25024,4584.134,18880.1
1235,61.75,-10.29184,-0.2704065,0.007441984,0,0,0,0,0,10.29171,38.28761,0.2704065,0,48.26854,-10.29184,4592.627,18885.9
1240,62.0,-10.33344,-0.2713607,0.007468245,0,0,0,0,0,10.33331,38.44236,0.2713607,0,48.51963,-10.33344,4597.275,18876.2
1245,62.25,-10.37544,-0.2723629,0.007495828,0,0,0,0,0,10.37531,38.59861,0.2723629,0,48.77377,-10.37544,4602.542,18869.2
1250,62.5,-10.41678,-0.2733778,0.007523757,0,0,0,0,0,10.41664,38.75239,0.2733778,0,49.02453,-10.41678,4608.122,18864.4
1255,62.75,-10.45864,-0.2747163,0.007560597,0,0,0,0,0,10.45851,38.90814,0.2747163,0,49.27916,-10.45864,4618.909,18880.9
1260,63.0,-10.50037,-0.2756829,0.007587198,0,0,0,0,0,10.50024,39.0634,0.2756829,0,49.53362,-10.50037,4623.381,18872
1265,63.25,-10.54184,-0.276943,0.007621877,0,0,0,0,0,10.54171,39.21766,0.276943,0,49.7871,-10.54184,4632.755,18883.7
1270,63.5,-10.58357,-0.2781477,0.007655034,0,0,0,0,0,10.58344,39.37292,0.2781477,0,50.04285,-10.58357,4641.024,18891
1275,63.75,-10.62517,-0.2795109,0.007692549,0,0,0,0,0,10.62504,39.52768,0.2795109,0,50.29845,-10.62517,4651.863,18909.3
1280,64.0,-10.66704,-0.2807141,0.007725663,0,0,0,0,0,10.66691,39.68344,0.2807141,0,50.55634,-10.66704,4659.855,18916.2
1285,64.25,-10.70864,-0.2820162,0.0077615,0,0,0,0,0,10.70851,39.8382,0.2820162,0,50.81325,-10.70864,4669.459,18930.1
1290,64.5,-10.75024,-0.2832338,0.007795009,0,0,0,0,0,10.75011,39.99296,0.2832338,0,51.07083,-10.75024,4677.554,18938.2
1295,64.75,-10.79224,-0.2847403,0.007836471,0,0,0,0,0,10.79211,40.14921,0.2847403,0,51.33155,-10.79224,4690.19,18964.9
1300,65.0,-10.83344,-0.285776,0.007864975,0,0,0,0,0,10.83331,40.30248,0.285776,0,51.58797,-10.83344,4695.195,18961.5
1305,65.25,-10.87517,-0.2875347,0.007913376,0,0,0,0,0,10.87504,40.45774,0.2875347,0,51.84839,-10.87517,4711.803,19004.9
1310,65.5,-10.91704,-0.2887016,0.007945492,0,0,0,0,0,10.91691,40.61349,0.2887016,0,52.11032,-10.91704,4718.55,19008.9
1315,65.75,-10.95851,-0.2895975,0.007970148,0,0,0,0,0,10.95837,40.76776,0.2895975,0,52.37042,-10.95851,4720.897,18995.7
1320,66.0,-11.00024,-0.2917607,0.008029683,0,0,0,0,0,11.00011,40.92302,0.2917607,0,52.63288,-11.00024,4743.695,19065
1325,66.25,-11.04197,-0.2922778,0.008043914,0,0,0,0,0,11.04184,41.07827,0.2922778,0,52.89602,-11.04197,4739.613,19026.6
1330,66.5,-11.08357,-0.2943766,0.008101678,0,0,0,0,0,11.08344,41.23304,0.2943766,0,53.15903,-11.08357,4761.11,19091.3
1335,66.75,-11.12504,-0.295565,0.008134382,0,0,0,0,0,11.12491,41.3873,0.2955649,0,53.42188,-11.12504,4767.781,19096.9
1340,67.0,-11.16717,-0.2971884,0.008179059,0,0,0,0,0,11.16704,41.54405,0.2971883,0,53.68967,-11.16717,4781.147,19129.4
1345,67.25,-11.20864,-0.2983946,0.008212256,0,0,0,0,0,11.20851,41.69831,0.2983946,0,53.95391,-11.20864,4787.884,19136
1350,67.5,-11.25011,-0.2999542,0.008255181,0,0,0,0,0,11.24997,41.85258,0.2999542,0,54.21886,-11.25011,4800.175,19165.1
1355,67.75,-11.29211,-0.3012403,0.008290575,0,0,0,0,0,11.29197,42.00882,0.3012403,0,54.48793,-11.29211,4807.802,19175.7
1360,68.0,-11.33344,-0.3027872,0.008333148,0,0,0,0,0,11.33331,42.1626,0.3027872,0,54.75345,-11.33344,4819.676,19203.8
1365,68.25,-11.37517,-0.3040748,0.008368584,0,0,0,0,0,11.37504,42.31785,0.3040748,0,55.02225,-11.37517,4827.179,19214.8
1370,68.5,-11.41691,-0.3056988,0.008413279,0,0,0,0,0,11.41677,42.47311,0.3056988,0,55.29177,-11.41691,4839.898,19246.8
1375,68.75,-11.45851,-0.3070541,0.008450581,0,0,0,0,0,11.45837,42.62787,0.3070541,0,55.56116,-11.45851,4848.278,19261.9
1380,69.0,-11.50037,-0.3084503,0.008489004,0,0,0,0,0,11.50024,42.78362,0.3084503,0,55.833,-11.50037,4857.101,19279
1385,69.25,-11.54184,-0.3098558,0.008527686,0,0,0,0,0,11.54171,42.93789,0.3098558,0,56.10299,-11.54184,4866.077,19297.3
1390,69.5,-11.58344,-0.3115541,0.008574426,0,0,0,0,0,11.58331,43.09265,0.3115541,0,56.37457,-11.58344,4879.478,19333.4
1395,69.75,-11.6253,-0.3131623,0.008618686,0,0,0,0,0,11.62517,43.24841,0.3131623,0,56.64864,-11.6253,4891.242,19363.2
1400,70.0,-11.66664,-0.3146291,0.008659055,0,0,0,0,0,11.6665,43.40218,0.3146291,0,56.91996,-11.66664,4900.836,19385
1405,70.25,-11.70877,-0.3162466,0.00870357,0,0,0,0,0,11.70864,43.55892,0.3162466,0,57.1973,-11.70877,4912.388,19414.5
1410,70.5,-11.7501,-0.3176916,0.00874334,0,0,0,0,0,11.74997,43.71269,0.3176916,0,57.47011,-11.7501,4921.391,19434.6
1415,70.75,-11.79197,-0.3192574,0.008786432,0,0,0,0,0,11.79184,43.86845,0.3192574,0,57.74721,-11.79197,4931.961,19461.1
1420,71.0,-11.8337,-0.3209822,0.008833901,0,0,0,0,0,11.83357,44.0237,0.3209822,0,58.02418,-11.8337,4944.891,19497.2
1425,71.25,-11.87517,-0.3224586,0.008874535,0,0,0,0,0,11.87504,44.17797,0.3224586,0,58.30015,-11.87517,4953.946,19518.5
1430,71.5,-11.9169,-0.3239897,0.008916673,0,0,0,0,0,11.91677,44.33323,0.3239897,0,58.57867,-11.9169,4963.624,19542.5
1435,71.75,-11.95877,-0.3257513,0.008965155,0,0,0,0,0,11.95864,44.48898,0.3257513,0,58.85885,-11.95877,4976.65,19580
1440,72.0,-12.00037,-0.3273117,0.009008098,0,0,0,0,0,12.00024,44.64374,0.3273117,0,59.13805,-12.00037,4986.547,19605.5
1445,72.25,-12.0417,-0.3290872,0.009056962,0,0,0,0,0,12.04157,44.79751,0.3290872,0,59.41621,-12.0417,4999.669,19644.2
1450,72.5,-12.0837,-0.3306912,0.009101107,0,0,0,0,0,12.08357,44.95376,0.3306912,0,59.69966,-12.0837,5009.817,19671.4
1455,72.75,-12.1253,-0.3326389,0.00915471,0,0,0,0,0,12.12517,45.10852,0.3326389,0,59.9812,-12.1253,5025.156,19719.3
1460,73.0,-12.16664,-0.334114,0.009195309,0,0,0,0,0,12.1665,45.26229,0.334114,0,60.26173,-12.16664,5033.301,19739.5
1465,73.25,-12.20877,-0.3360507,0.00924861,0,0,0,0,0,12.20864,45.41904,0.3360507,0,60.5485,-12.20877,5047.98,19785.4
1470,73.5,-12.25024,-0.337551,0.009289898,0,0,0,0,0,12.2501,45.5733,0.337551,0,60.83154,-12.25024,5056.184,19806.5
1475,73.75,-12.29197,-0.3395089,0.009343784,0,0,0,0,0,12.29184,45.72856,0.339509,0,61.1172,-12.29197,5071.007,19853.7
1480,74.0,-12.33357,-0.3411681,0.009389448,0,0,0,0,0,12.33344,45.88332,0.3411681,0,61.40277,-12.33357,5081.258,19883.4
1485,74.25,-12.37517,-0.343001,0.00943989,0,0,0,0,0,12.37504,46.03808,0.3430009,0,61.68916,-12.37517,5093.946,19923.1
1490,74.5,-12.4169,-0.3445765,0.009483252,0,0,0,0,0,12.41677,46.19334,0.3445765,0,61.97729,-12.4169,5102.621,19947.3
1495,74.75,-12.4585,-0.3463914,0.009533201,0,0,0,0,0,12.45837,46.3481,0.3463914,0,62.26534,-12.4585,5114.743,19985.4
1500,75.0,-12.50024,-0.348267,0.00958482,0,0,0,0,0,12.5001,46.50336,0.348267,0,62.55513,-12.50024,5127.557,20026.5
1505,75.25,-12.54197,-0.350211,0.009638321,0,0,0,0,0,12.54184,46.65862,0.350211,0,62.84577,-12.54197,5141.214,20071.3
1510,75.5,-12.5833,-0.3519075,0.009685012,0,0,0,0,0,12.58317,46.81239,0.3519075,0,63.13446,-12.5833,5151.227,20102.3
1515,75.75,-12.62544,-0.3540533,0.009744065,0,0,0,0,0,12.6253,46.96913,0.3540533,0,63.4296,-12.62544,5167.363,20157.4
1520,76.0,-12.66704,-0.3557945,0.009791988,0,0,0,0,0,12.6669,47.12389,0.3557945,0,63.72186,-12.66704,5177.622,20190
1525,76.25,-12.7085,-0.3576704,0.009843616,0,0,0,0,0,12.70837,47.27816,0.3576705,0,64.01403,-12.7085,5189.736,20230.2
1530,76.5,-12.75024,-0.3596766,0.009898828,0,0,0,0,0,12.7501,47.43341,0.3596766,0,64.30896,-12.75024,5203.476,20277.1
1535,76.75,-12.7921,-0.3613604,0.009945169,0,0,0,0,0,12.79197,47.58917,0.3613604,0,64.60569,-12.7921,5212.346,20305.3
1540,77.0,-12.83357,-0.3632571,0.00999737,0,0,0,0,0,12.83344,47.74343,0.3632571,0,64.90046,-12.83357,5224.282,20346
1545,77.25,-12.87517,-0.3652964,0.01005349,0,0,0,0,0,12.87504,47.8982,0.3652964,0,65.19706,-12.87517,5238.052,20394.1
1550,77.5,-12.91704,-0.3671707,0.01010508,0,0,0,0,0,12.9169,48.05395,0.3671707,0,65.49645,-12.91704,5249.188,20432.3
1555,77.75,-12.9585,-0.3688983,0.01015262,0,0,0,0,0,12.95837,48.20821,0.3688983,0,65.79386,-12.9585,5258.225,20462.7
1560,78.0,-12.99997,-0.3708088,0.0102052,0,0,0,0,0,12.99984,48.36248,0.3708088,0,66.09217,-12.99997,5269.713,20503.1
1565,78.25,-13.0421,-0.3727362,0.01025825,0,0,0,0,0,13.04197,48.51923,0.3727362,0,66.39617,-13.0421,5281.025,20543.1
1570,78.5,-13.08343,-0.3746347,0.0103105,0,0,0,0,0,13.0833,48.673,0.3746347,0,66.69532,-13.08343,5292.07,20582.5
1575,78.75,-13.1253,-0.3765666,0.01036366,0,0,0,0,0,13.12517,48.82875,0.3765666,0,66.99923,-13.1253,5303.217,20622.6
1580,79.0,-13.16703,-0.3788855,0.01042748,0,0,0,0,0,13.1669,48.98401,0.3788854,0,67.30311,-13.16703,5319.684,20683.9
1585,79.25,-13.20837,-0.3806455,0.01047592,0,0,0,0,0,13.20823,49.13778,0.3806455,0,67.60497,-13.20837,5328.288,20714.9
1590,79.5,-13.25023,-0.3830489,0.01054207,0,0,0,0,0,13.2501,49.29353,0.3830489,0,67.91166,-13.25023,5345.51,20779.8
1595,79.75,-13.29183,-0.384671,0.01058671,0,0,0,0,0,13.2917,49.44829,0.384671,0,68.21734,-13.29183,5351.764,20802.5
1600,80.0,-13.33383,-0.3871282,0.01065434,0,0,0,0,0,13.3337,49.60454,0.3871282,0,68.52691,-13.33383,5369.302,20869.5
1605,80.25,-13.37517,-0.3890201,0.0107064,0,0,0,0,0,13.37503,49.75831,0.3890201,0,68.83251,-13.37517,5379.078,20906.7
1610,80.50001,-13.4169,-0.3907437,0.01075384,0,0,0,0,0,13.41677,49.91357,0.3907437,0,69.142,-13.4169,5386.214,20934
1615,80.75001,-13.4589,-0.3932421,0.0108226,0,0,0,0,0,13.45877,50.06982,0.3932421,0,69.45445,-13.4589,5403.744,21002.1
1620,81.00001,-13.5001,-0.3946053,0.01086012,0,0,0,0,0,13.49997,50.22309,0.3946053,0,69.7619,-13.5001,5405.831,21010.5
1625,81.25001,-13.54197,-0.3978073,0.01094824,0,0,0,0,0,13.54183,50.37885,0.3978073,0,70.07529,-13.54197,5432.644,21115.6
1630,81.50001,-13.58357,-0.399294,0.01098916,0,0,0,0,0,13.58343,50.53361,0.399294,0,70.38767,-13.58357,5435.939,21129.6
1635,81.75001,-13.62517,-0.4020604,0.01106529,0,0,0,0,0,13.62503,50.68837,0.4020604,0,70.70102,-13.62517,5456.476,21211
1640,82.00001,-13.6669,-0.40362,0.01110821,0,0,0,0,0,13.66677,50.84362,0.40362,0,71.01636,-13.6669,5460.395,21228.2
1645,82.25001,-13.70877,-0.4065307,0.01118832,0,0,0,0,0,13.70863,50.99938,0.4065307,0,71.33372,-13.70877,5482.347,21316
1650,82.50001,-13.75037,-0.4081421,0.01123267,0,0,0,0,0,13.75023,51.15414,0.4081421,0,71.65006,-13.75037,5486.693,21335.8
1655,82.75001,-13.7917,-0.4107627,0.01130479,0,0,0,0,0,13.79157,51.30791,0.4107627,0,71.96536,-13.7917,5504.539,21408.4
1660,83.00001,-13.8337,-0.4128117,0.01136118,0,0,0,0,0,13.83357,51.46416,0.4128117,0,72.28677,-13.8337,5514.246,21449.9
1665,83.25001,-13.87517,-0.4153908,0.01143217,0,0,0,0,0,13.87503,51.61842,0.4153908,0,72.60511,-13.87517,5531.062,21519.4
1670,83.50001,-13.91677,-0.4176929,0.01149552,0,0,0,0,0,13.91663,51.77319,0.4176929,0,72.92551,-13.91677,5543.923,21574
1675,83.75001,-13.95877,-0.4200809,0.01156124,0,0,0,0,0,13.95863,51.92944,0.4200809,0,73.25001,-13.95877,5557.554,21632
1680,84.00001,-14.00023,-0.4223077,0.01162253,0,0,0,0,0,14.0001,52.0837,0.4223077,0,73.57145,-14.00023,5569.085,21682.3
1685,84.25001,-14.04197,-0.4249142,0.01169426,0,0,0,0,0,14.04183,52.23896,0.4249142,0,73.896,-14.04197,5585.302,21751.3
1690,84.50001,-14.08357,-0.4267997,0.01174616,0,0,0,0,0,14.08343,52.39372,0.4267997,0,74.22055,-14.08357,5591.907,21783.3
1695,84.75001,-14.12517,-0.4301934,0.01183955,0,0,0,0,0,14.12503,52.54848,0.4301934,0,74.54616,-14.12517,5618.048,21891.8
1700,85.00001,-14.1669,-0.4317798,0.01188321,0,0,0,0,0,14.16677,52.70374,0.4317798,0,74.8739,-14.1669,5620.316,21907.8
1705,85.25001,-14.2085,-0.4348083,0.01196656,0,0,0,0,0,14.20837,52.8585,0.4348083,0,75.20165,-14.2085,5641.217,21996.9
1710,85.50001,-14.25037,-0.4370898,0.01202935,0,0,0,0,0,14.25023,53.01426,0.4370898,0,75.53259,-14.25037,5652.081,22047.3
1715,85.75001,-14.2921,-0.4397284,0.01210197,0,0,0,0,0,14.29197,53.16951,0.4397284,0,75.86358,-14.2921,5667.412,22115.7
1720,86.00001,-14.33356,-0.4424884,0.01217793,0,0,0,0,0,14.33343,53.32378,0.4424883,0,76.19352,-14.33356,5684.198,22190.1
1725,86.25001,-14.37543,-0.4440355,0.01222051,0,0,0,0,0,14.3753,53.47953,0.4440355,0,76.52777,-14.37543,5685.038,22202.8
1730,86.50001,-14.41703,-0.4477341,0.0123223,0,0,0,0,0,14.4169,53.6343,0.4477341,0,76.86101,-14.41703,5713.321,22323.2
1735,86.75001,-14.45863,-0.449028,0.01235791,0,0,0,0,0,14.4585,53.78905,0.449028,0,77.19535,-14.45863,5710.707,22323.3
1740,87.00001,-14.50036,-0.4525402,0.01245457,0,0,0,0,0,14.50023,53.94431,0.4525402,0,77.53189,-14.50036,5736.039,22433.1
1745,87.25001,-14.54183,-0.4541268,0.01249824,0,0,0,0,0,14.5417,54.09858,0.4541268,0,77.8674,-14.54183,5736.869,22447.6
1750,87.50001,-14.58343,-0.457584,0.01259338,0,0,0,0,0,14.5833,54.25334,0.457584,0,78.20514,-14.58343,5761.052,22553.9
1755,87.75001,-14.6253,-0.4598116,0.01265469,0,0,0,0,0,14.62516,54.4091,0.4598116,0,78.54619,-14.6253,5769.388,22598.9
1760,88.00001,-14.66703,-0.4629505,0.01274108,0,0,0,0,0,14.6669,54.56435,0.4629505,0,78.88731,-14.66703,5788.991,22688.4
1765,88.25001,-14.7085,-0.4652248,0.01280367,0,0,0,0,0,14.70836,54.71862,0.4652248,0,79.22742,-14.7085,5797.679,22735.6
1770,88.50001,-14.75036,-0.4680387,0.01288111,0,0,0,0,0,14.75023,54.87437,0.4680387,0,79.57198,-14.75036,5812.682,22808.2
1775,88.75001,-14.79223,-0.4706121,0.01295194,0,0,0,0,0,14.7921,55.03012,0.4706121,0,79.91774,-14.79223,5824.469,22868.7
1780,89.00001,-14.83343,-0.4732969,0.01302583,0,0,0,0,0,14.8333,55.1834,0.4732969,0,80.25916,-14.83343,5837.732,22935.2
1785,89.25001,-14.87543,-0.4760829,0.0131025,0,0,0,0,0,14.8753,55.33965,0.4760829,0,80.60841,-14.87543,5851.623,23005.1
1790,89.50001,-14.9169,-0.4795634,0.01319829,0,0,0,0,0,14.91676,55.49391,0.4795634,0,80.95442,-14.9169,5874.042,23108.9
1795,89.75001,-14.95863,-0.4815797,0.01325378,0,0,0,0,0,14.9585,55.64917,0.4815797,0,81.30388,-14.95863,5878.161,23141.3
1800,90.00001,-15.0001,-0.4850333,0.01334883,0,0,0,0,0,14.99996,55.80344,0.4850333,0,81.65231,-15.0001,5899.724,23242.8
1803,90.134,-15.02276,-0.4858391,0.013371,0,0,0,0,0,15.02263,55.88776,0.4858391,0,81.84329,-15.02276,5898.25,23246.3