File: GFBaking/em/xg8.csv
,Time sec,Extension mm,Load kgf,Compressive stress MPa,Cycle Count ,Total Cycle Count ,Repetitions Count ,Marked Data ,PIP Count ,Compressive extension mm,Compressive strain %,Compressive load kgf,Displacement (Strain 1) mm,True strain %,Corrected Position mm,True stress Pa,Elastic Modulus
0,0.0,0.0,-0.006573745,0.0001754408,0,0,0,0,0,0.0,0.0,0.006573745,0,0.0,0.0,175.4408,inf
5,0.25,-0.03639991,-0.008969796,0.0002393869,0,0,0,0,0,0.03639991,0.1407032,0.008969796,0,0.1408023,-0.03639991,239.05,177129
10,0.5,-0.08173313,-0.0110614,0.0002952077,0,0,0,0,0,0.08173313,0.3159379,0.0110614,0,0.316438,-0.08173313,294.2751,97279
15,0.7500001,-0.1247997,-0.01318497,0.0003518818,0,0,0,0,0,0.1247997,0.4824109,0.01318497,0,0.4835783,-0.1247997,350.1843,75940.4
20,1.0,-0.1666663,-0.01433748,0.0003826402,0,0,0,0,0,0.1666663,0.6442453,0.01433748,0,0.6463295,-0.1666663,380.175,61834.7
25,1.25,-0.2081328,-0.01620823,0.0004325669,0,0,0,0,0,0.2081328,0.8045335,0.01620823,0,0.8077874,-0.2081328,429.0868,55976.1
30,1.5,-0.2501327,-0.01738431,0.0004639542,0,0,0,0,0,0.2501327,0.9668834,0.01738431,0,0.971588,-0.2501327,459.4683,49956.8
35,1.75,-0.2915993,-0.01918511,0.0005120144,0,0,0,0,0,0.2915993,1.127172,0.01918511,0,1.133572,-0.2915993,506.2431,47291.7
40,2.0,-0.3333325,-0.02024097,0.0005401932,0,0,0,0,0,0.3333325,1.288491,0.02024097,0,1.296864,-0.3333325,533.2328,43647.7
45,2.25,-0.3747991,-0.02220042,0.0005924872,0,0,0,0,0,0.3747991,1.448779,0.02220042,0,1.459376,-0.3747991,583.9034,42576.5
50,2.5,-0.4165323,-0.02309989,0.0006164923,0,0,0,0,0,0.4165323,1.610098,0.02309989,0,1.623201,-0.4165323,606.5661,39862.9
55,2.75,-0.4581322,-0.02480952,0.0006621191,0,0,0,0,0,0.4581322,1.770901,0.02480952,0,1.78677,-0.4581322,650.3936,38925.6
60,3.0,-0.4997322,-0.02606454,0.0006956133,0,0,0,0,0,0.4997322,1.931705,0.02606454,0,1.950606,-0.4997322,682.1761,37490.4
65,3.25,-0.5415987,-0.02756398,0.0007356304,0,0,0,0,0,0.5415987,2.09354,0.02756398,0,2.115765,-0.5415987,720.2297,36582.4
70,3.5,-0.5830653,-0.0286888,0.0007656497,0,0,0,0,0,0.5830653,2.253828,0.0286888,0,2.279615,-0.5830653,748.3933,35367.3
75,3.75,-0.6246652,-0.03024069,0.0008070667,0,0,0,0,0,0.6246652,2.414632,0.03024069,0,2.444262,-0.6246652,787.579,34797.8
80,4.0,-0.666665,-0.03166981,0.0008452073,0,0,0,0,0,0.666665,2.576981,0.03166981,0,2.610767,-0.666665,823.4265,34146.4
85,4.25,-0.7083983,-0.03302884,0.0008814773,0,0,0,0,0,0.7083983,2.7383,0.03302884,0,2.776491,-0.7083983,857.3398,33513.8
90,4.5,-0.7499981,-0.03436123,0.0009170363,0,0,0,0,0,0.7499982,2.899104,0.03436124,0,2.941958,-0.7499981,890.4505,32931.8
95,4.75,-0.7915981,-0.03586892,0.0009572736,0,0,0,0,0,0.7915981,3.059907,0.03586892,0,3.1077,-0.7915981,927.982,32570.2
100,5.0,-0.8334646,-0.0372988,0.0009954342,0,0,0,0,0,0.8334646,3.221742,0.03729879,0,3.274782,-0.8334646,963.3639,32167.3
105,5.25,-0.8747979,-0.03782935,0.001009594,0,0,0,0,0,0.8747979,3.381515,0.03782935,0,3.44001,-0.8747979,975.4542,31083.4
110,5.5,-0.9163978,-0.0396511,0.001058213,0,0,0,0,0,0.9163978,3.542318,0.0396511,0,3.606581,-0.9163978,1020.727,31101.3
115,5.75,-0.9583976,-0.04071888,0.00108671,0,0,0,0,0,0.9583976,3.704668,0.04071888,0,3.775034,-0.9583976,1046.451,30539.2
120,6.0,-0.9997309,-0.0417466,0.001114138,0,0,0,0,0,0.9997309,3.864441,0.0417466,0,3.941092,-0.9997309,1071.082,30015.5
125,6.25,-1.041464,-0.043352,0.001156983,0,0,0,0,0,1.041464,4.02576,0.043352,0,4.109037,-1.041464,1110.405,29920.7
130,6.5,-1.083331,-0.04447044,0.001186832,0,0,0,0,0,1.083331,4.187594,0.04447044,0,4.277802,-1.083331,1137.132,29506.5
135,6.75,-1.124664,-0.04552825,0.001215063,0,0,0,0,0,1.124664,4.347367,0.04552825,0,4.444696,-1.124664,1162.239,29098.2
140,7.0,-1.166664,-0.04684833,0.001250293,0,0,0,0,0,1.166664,4.509717,0.04684833,0,4.614569,-1.166664,1193.909,28863.9
145,7.25,-1.208264,-0.0483263,0.001289738,0,0,0,0,0,1.208264,4.670521,0.0483263,0,4.783109,-1.208264,1229.5,28749.4
150,7.5,-1.249864,-0.04887637,0.001304418,0,0,0,0,0,1.249864,4.831325,0.04887637,0,4.951934,-1.249864,1241.397,28108.9
155,7.75,-1.291464,-0.05093195,0.001359277,0,0,0,0,0,1.291463,4.992128,0.05093195,0,5.121043,-1.291464,1291.421,28347.6
160,8.0,-1.33333,-0.05101277,0.001361434,0,0,0,0,0,1.33333,5.153962,0.05101277,0,5.291527,-1.33333,1291.266,27501
165,8.25,-1.375063,-0.05357775,0.001429889,0,0,0,0,0,1.375063,5.315281,0.05357775,0,5.461757,-1.375063,1353.886,28007.2
170,8.5,-1.416397,-0.05287046,0.001411013,0,0,0,0,0,1.416397,5.475054,0.05287046,0,5.630641,-1.416397,1333.759,26830.9
175,8.75,-1.458396,-0.05560504,0.001483993,0,0,0,0,0,1.458396,5.637404,0.05560504,0,5.802542,-1.458396,1400.334,27406
180,9.0,-1.499863,-0.05584637,0.001490434,0,0,0,0,0,1.499863,5.797692,0.05584637,0,5.972551,-1.499863,1404.023,26764
185,9.25,-1.541463,-0.05721276,0.0015269,0,0,0,0,0,1.541463,5.958496,0.05721276,0,6.143397,-1.541463,1435.92,26678.8
190,9.5,-1.58333,-0.05839979,0.00155858,0,0,0,0,0,1.583329,6.12033,0.05839979,0,6.315633,-1.58333,1463.19,26512.3
195,9.75,-1.624929,-0.05917791,0.001579346,0,0,0,0,0,1.624929,6.281134,0.05917791,0,6.487067,-1.624929,1480.146,26177.8
200,10.0,-1.666663,-0.06007265,0.001603225,0,0,0,0,0,1.666663,6.442453,0.06007265,0,6.659346,-1.666663,1499.938,25908.1
205,10.25,-1.708129,-0.06089197,0.001625091,0,0,0,0,0,1.708129,6.602741,0.06089197,0,6.830819,-1.708129,1517.791,25624
210,10.5,-1.749996,-0.06177973,0.001648784,0,0,0,0,0,1.749996,6.764576,0.06177973,0,7.004245,-1.749996,1537.251,25375.6
215,10.75,-1.791596,-0.06260438,0.001670792,0,0,0,0,0,1.791596,6.925379,0.06260438,0,7.176864,-1.791596,1555.084,25117.2
220,11.0,-1.833062,-0.06418329,0.00171293,0,0,0,0,0,1.833062,7.085668,0.06418329,0,7.349227,-1.833062,1591.558,25168.2
225,11.25,-1.875062,-0.06446395,0.001720421,0,0,0,0,0,1.875062,7.248017,0.06446395,0,7.524111,-1.875062,1595.724,24712
230,11.5,-1.916662,-0.06661259,0.001777764,0,0,0,0,0,1.916662,7.408821,0.06661259,0,7.697631,-1.916662,1646.053,24981.5
235,11.75,-1.958129,-0.06641222,0.001772416,0,0,0,0,0,1.958129,7.569109,0.06641222,0,7.870895,-1.958129,1638.26,24378.9
240,12.0,-2.000128,-0.067763,0.001808466,0,0,0,0,0,2.000128,7.731459,0.067763,0,8.046693,-2.000128,1668.645,24352.4
245,12.25,-2.041595,-0.06888369,0.001838375,0,0,0,0,0,2.041595,7.891747,0.06888369,0,8.220564,-2.041595,1693.295,24252.4
250,12.5,-2.083062,-0.06924712,0.001848074,0,0,0,0,0,2.083062,8.052036,0.06924712,0,8.394738,-2.083062,1699.267,23895
255,12.75,-2.124928,-0.07136138,0.0019045,0,0,0,0,0,2.124928,8.21387,0.07136139,0,8.570899,-2.124928,1748.067,24139.4
260,13.0,-2.166528,-0.07174058,0.00191462,0,0,0,0,0,2.166528,8.374674,0.07174058,0,8.746246,-2.166528,1754.277,23801.7
265,13.25,-2.208261,-0.0725981,0.001937506,0,0,0,0,0,2.208261,8.535993,0.0725981,0,8.922465,-2.208261,1772.121,23631
270,13.5,-2.249861,-0.07449744,0.001988196,0,0,0,0,0,2.249861,8.696796,0.07449744,0,9.098431,-2.249861,1815.286,23800.9
275,13.75,-2.291728,-0.07389034,0.001971993,0,0,0,0,0,2.291728,8.858631,0.07389034,0,9.275838,-2.291728,1797.302,23175.6
280,14.0,-2.333194,-0.07633705,0.002037291,0,0,0,0,0,2.333194,9.018919,0.07633705,0,9.45186,-2.333194,1853.55,23517.5
285,14.25,-2.374928,-0.07518926,0.002006659,0,0,0,0,0,2.374928,9.180238,0.07518926,0,9.629328,-2.374928,1822.443,22756.9
290,14.5,-2.416661,-0.07807392,0.002083645,0,0,0,0,0,2.416661,9.341557,0.07807392,0,9.807111,-2.416661,1889.0,23221.9
295,14.75,-2.458127,-0.07748618,0.002067959,0,0,0,0,0,2.458127,9.501845,0.07748618,0,9.984073,-2.458127,1871.465,22658.3
300,15.0,-2.499994,-0.07950716,0.002121896,0,0,0,0,0,2.499994,9.663679,0.07950716,0,10.16306,-2.499994,1916.842,22859.9
305,15.25,-2.541461,-0.07869926,0.002100334,0,0,0,0,0,2.541461,9.823968,0.07869925,0,10.34065,-2.541461,1893.998,22258.4
310,15.5,-2.583327,-0.08232181,0.002197013,0,0,0,0,0,2.583327,9.985802,0.08232181,0,10.52028,-2.583327,1977.624,22905.7
315,15.75,-2.62466,-0.08084968,0.002157725,0,0,0,0,0,2.62466,10.14558,0.08084968,0,10.69793,-2.62466,1938.811,22141.8
320,16.0,-2.666527,-0.08304065,0.002216198,0,0,0,0,0,2.666527,10.30741,0.08304065,0,10.8782,-2.666527,1987.765,22384.7
325,16.25,-2.708393,-0.0843443,0.00225099,0,0,0,0,0,2.708393,10.46924,0.0843443,0,11.0588,-2.708393,2015.328,22384.7
330,16.5,-2.749593,-0.0847938,0.002262986,0,0,0,0,0,2.749593,10.6285,0.0847938,0,11.23684,-2.749593,2022.465,22166.8
335,16.75,-2.791726,-0.08641181,0.002306168,0,0,0,0,0,2.791727,10.79137,0.0864118,0,11.41924,-2.791726,2057.3,22248.8
340,17.0,-2.833326,-0.08710596,0.002324693,0,0,0,0,0,2.833326,10.95217,0.08710596,0,11.59965,-2.833326,2070.089,22098.3
345,17.25,-2.87466,-0.08808767,0.002350893,0,0,0,0,0,2.87466,11.11194,0.08808767,0,11.77924,-2.87466,2089.663,22026
350,17.5,-2.916793,-0.08919125,0.002380346,0,0,0,0,0,2.916793,11.27481,0.08919125,0,11.96263,-2.916793,2111.966,21979.8
355,17.75,-2.958393,-0.08916844,0.002379737,0,0,0,0,0,2.958393,11.43561,0.08916844,0,12.14403,-2.958393,2107.599,21665.2
360,18.0,-2.999859,-0.09182407,0.002450611,0,0,0,0,0,2.999859,11.5959,0.09182407,0,12.32518,-2.999859,2166.44,22002
365,18.25,-3.041593,-0.09179413,0.002449811,0,0,0,0,0,3.041593,11.75722,0.09179413,0,12.50783,-3.041593,2161.782,21693.1
370,18.5,-3.083193,-0.09341445,0.002493055,0,0,0,0,0,3.083193,11.91802,0.09341446,0,12.69022,-3.083193,2195.932,21778.1
375,18.75,-3.124792,-0.09376085,0.0025023,0,0,0,0,0,3.124792,12.07883,0.09376086,0,12.87295,-3.124792,2200.051,21567.9
380,19.0,-3.166392,-0.09518983,0.002540436,0,0,0,0,0,3.166392,12.23963,0.09518982,0,13.05602,-3.166392,2229.496,21608.9
385,19.25,-3.208392,-0.09538884,0.002545748,0,0,0,0,0,3.208392,12.40198,0.09538884,0,13.24118,-3.208392,2230.024,21370.6
390,19.5,-3.249725,-0.09759105,0.00260452,0,0,0,0,0,3.249725,12.56175,0.09759106,0,13.42374,-3.249725,2277.347,21585.9
395,19.75,-3.291459,-0.0980092,0.00261568,0,0,0,0,0,3.291459,12.72307,0.0980092,0,13.6084,-3.291459,2282.885,21403.5
400,20.0,-3.333325,-0.09947464,0.00265479,0,0,0,0,0,3.333325,12.88491,0.09947464,0,13.794,-3.333325,2312.723,21450.7
405,20.25,-3.374925,-0.1004218,0.002680068,0,0,0,0,0,3.374925,13.04571,0.1004218,0,13.97876,-3.374925,2330.435,21388
410,20.5,-3.416525,-0.1015142,0.002709223,0,0,0,0,0,3.416525,13.20651,0.1015142,0,14.16386,-3.416525,2351.429,21357.5
415,20.75,-3.458392,-0.1024321,0.002733719,0,0,0,0,0,3.458392,13.36835,0.1024321,0,14.35049,-3.458392,2368.266,21289.7
420,21.0,-3.499991,-0.1038698,0.002772087,0,0,0,0,0,3.499991,13.52915,0.1038698,0,14.53628,-3.499991,2397.047,21331.9
425,21.25,-3.541591,-0.10503,0.002803051,0,0,0,0,0,3.541591,13.68995,0.10503,0,14.72242,-3.541591,2419.314,21316.8
430,21.5,-3.583191,-0.1060393,0.002829989,0,0,0,0,0,3.583191,13.85076,0.1060393,0,14.9089,-3.583191,2438.014,21271.8
435,21.75,-3.625191,-0.1074339,0.002867207,0,0,0,0,0,3.625191,14.01311,0.1074339,0,15.09753,-3.625191,2465.422,21301.9
440,22.0,-3.666391,-0.1080898,0.002884713,0,0,0,0,0,3.666391,14.17237,0.1080898,0,15.28292,-3.666391,2475.881,21191.1
445,22.25,-3.707991,-0.1093431,0.002918161,0,0,0,0,0,3.707991,14.33317,0.1093431,0,15.47045,-3.707991,2499.896,21196.3
450,22.5,-3.750124,-0.1103945,0.002946221,0,0,0,0,0,3.750124,14.49603,0.1103945,0,15.66074,-3.750124,2519.136,21159.7
455,22.75,-3.791324,-0.1115547,0.002977185,0,0,0,0,0,3.791324,14.65529,0.1115547,0,15.84717,-3.791324,2540.87,21149.7
460,23.0,-3.833191,-0.1127914,0.003010189,0,0,0,0,0,3.83319,14.81713,0.1127914,0,16.03698,-3.833191,2564.166,21150.6
465,23.25,-3.874924,-0.1139644,0.003041493,0,0,0,0,0,3.874924,14.97845,0.1139644,0,16.22654,-3.874924,2585.925,21140.4
470,23.5,-3.916657,-0.1150846,0.003071391,0,0,0,0,0,3.916657,15.13976,0.1150846,0,16.41646,-3.916657,2606.389,21120.7
475,23.75,-3.958124,-0.1162972,0.003103753,0,0,0,0,0,3.958124,15.30005,0.1162972,0,16.60552,-3.958124,2628.877,21119.7
480,24.0,-3.999857,-0.1174865,0.003135492,0,0,0,0,0,3.999857,15.46137,0.1174865,0,16.79616,-3.999857,2650.702,21113
485,24.25,-4.041723,-0.1187131,0.003168229,0,0,0,0,0,4.041723,15.62321,0.1187131,0,16.98778,-4.041723,2673.25,21112.5
490,24.5,-4.083057,-0.1197878,0.00319691,0,0,0,0,0,4.083057,15.78298,0.1197878,0,17.17731,-4.083057,2692.343,21088
495,24.75,-4.124923,-0.1209816,0.00322877,0,0,0,0,0,4.124923,15.94481,0.1209816,0,17.36966,-4.124923,2713.949,21081.9
500,25.0,-4.166523,-0.122229,0.003262061,0,0,0,0,0,4.166523,16.10562,0.122229,0,17.56115,-4.166523,2736.686,21086.7
505,25.25,-4.208123,-0.1232348,0.003288904,0,0,0,0,0,4.208123,16.26642,0.1232348,0,17.75301,-4.208123,2753.917,21050
510,25.5,-4.249856,-0.1246006,0.003325354,0,0,0,0,0,4.249856,16.42774,0.1246006,0,17.94585,-4.249856,2779.074,21074.3
515,25.75,-4.291456,-0.1255765,0.003351399,0,0,0,0,0,4.291456,16.58854,0.1255765,0,18.13845,-4.291456,2795.451,21033.5
520,26.0,-4.333323,-0.126839,0.003385091,0,0,0,0,0,4.333323,16.75038,0.126839,0,18.33266,-4.333323,2818.076,21039.7
525,26.25,-4.37479,-0.1283412,0.003425185,0,0,0,0,0,4.37479,16.91067,0.1283412,0,18.52539,-4.37479,2845.963,21087.1
530,26.5,-4.416656,-0.1287366,0.003435735,0,0,0,0,0,4.416656,17.0725,0.1287366,0,18.72035,-4.416656,2849.169,20951.5
535,26.75,-4.458389,-0.1309742,0.003495454,0,0,0,0,0,4.458389,17.23382,0.1309742,0,18.91507,-4.458389,2893.054,21116.2
540,27.0,-4.499856,-0.1311704,0.00350069,0,0,0,0,0,4.499856,17.39411,0.1311704,0,19.10892,-4.499856,2891.776,20952.9
545,27.25,-4.541856,-0.1333155,0.003557939,0,0,0,0,0,4.541856,17.55646,0.1333155,0,19.30565,-4.541856,2933.291,21098.6
550,27.5,-4.583189,-0.1338019,0.003570919,0,0,0,0,0,4.583189,17.71623,0.1338019,0,19.49963,-4.583189,2938.287,20984.7
555,27.75,-4.624655,-0.1350494,0.003604213,0,0,0,0,0,4.624655,17.87652,0.1350494,0,19.69462,-4.624655,2959.905,20990.4
560,28.0,-4.666789,-0.136247,0.003636174,0,0,0,0,0,4.666789,18.03938,0.136247,0,19.89313,-4.666789,2980.231,20985.3
565,28.25,-4.708122,-0.1376343,0.003673197,0,0,0,0,0,4.708122,18.19916,0.1376342,0,20.08826,-4.708122,3004.707,21012.9
570,28.5,-4.749855,-0.1386452,0.003700177,0,0,0,0,0,4.749855,18.36048,0.1386452,0,20.28567,-4.749855,3020.807,20981.3
575,28.75,-4.791589,-0.1398476,0.003732269,0,0,0,0,0,4.791588,18.5218,0.1398476,0,20.48346,-4.791589,3040.986,20978.9
580,29.0,-4.833188,-0.1412123,0.003768688,0,0,0,0,0,4.833188,18.6826,0.1412123,0,20.68101,-4.833188,3064.599,21001.3
585,29.25,-4.874655,-0.1420878,0.003792054,0,0,0,0,0,4.874655,18.84289,0.1420878,0,20.87833,-4.874655,3077.522,20951.7
590,29.5,-4.916521,-0.1434316,0.003827917,0,0,0,0,0,4.916521,19.00472,0.1434316,0,21.07793,-4.916521,3100.432,20969.8
595,29.75,-4.958388,-0.1445006,0.003856447,0,0,0,0,0,4.958388,19.16656,0.1445006,0,21.27794,-4.958388,3117.299,20947.7
600,30.0,-4.999855,-0.1458541,0.003892571,0,0,0,0,0,4.999855,19.32685,0.1458541,0,21.47643,-4.999855,3140.259,20968.6
605,30.25,-5.041588,-0.1465739,0.003911779,0,0,0,0,0,5.041588,19.48816,0.1465739,0,21.6766,-5.041588,3149.445,20897.6
610,30.5,-5.083321,-0.148244,0.003956352,0,0,0,0,0,5.083321,19.64948,0.148244,0,21.87717,-5.083321,3178.95,20962.2
615,30.75,-5.124921,-0.149234,0.003982773,0,0,0,0,0,5.124921,19.81029,0.149234,0,22.07749,-5.124921,3193.774,20930.9
620,31.0,-5.166654,-0.1507589,0.00402347,0,0,0,0,0,5.166654,19.9716,0.1507589,0,22.27887,-5.166654,3219.918,20974
625,31.25,-5.208254,-0.1517399,0.00404965,0,0,0,0,0,5.208254,20.13241,0.1517399,0,22.48,-5.208254,3234.358,20941.8
630,31.5,-5.249854,-0.1545358,0.004124267,0,0,0,0,0,5.249854,20.29321,0.1545358,0,22.68154,-5.249854,3287.321,21158.7
635,31.75,-5.29132,-0.1537684,0.004103788,0,0,0,0,0,5.29132,20.4535,0.1537684,0,22.88284,-5.29132,3264.42,20888.6
640,32.0,-5.333187,-0.1558599,0.004159607,0,0,0,0,0,5.333187,20.61534,0.1558599,0,23.0865,-5.333187,3302.09,21006.6
645,32.25,-5.375054,-0.1563705,0.004173232,0,0,0,0,0,5.375054,20.77717,0.1563705,0,23.29057,-5.375054,3306.153,20911.2
650,32.5,-5.416254,-0.1577618,0.004210363,0,0,0,0,0,5.416254,20.93643,0.1577618,0,23.49179,-5.416254,3328.864,20936.8
655,32.75,-5.458387,-0.1586522,0.004234128,0,0,0,0,0,5.458386,21.09929,0.1586522,0,23.698,-5.458387,3340.757,20892.4
660,33.0,-5.50012,-0.160363,0.004279786,0,0,0,0,0,5.50012,21.26061,0.160363,0,23.90267,-5.50012,3369.877,20957.5
665,33.25,-5.541453,-0.1617292,0.004316246,0,0,0,0,0,5.541453,21.42038,0.1617292,0,24.10578,-5.541453,3391.69,20978.4
670,33.5,-5.583453,-0.1627226,0.004342757,0,0,0,0,0,5.583453,21.58273,0.1627226,0,24.3126,-5.583453,3405.471,20948.5
675,33.75,-5.62492,-0.1632695,0.004357355,0,0,0,0,0,5.62492,21.74302,0.1632695,0,24.51722,-5.62492,3409.934,20863.9
680,34.0,-5.666653,-0.1650243,0.004404185,0,0,0,0,0,5.666652,21.90434,0.1650243,0,24.72357,-5.666653,3439.478,20932.9
685,34.25,-5.708253,-0.1661423,0.004434024,0,0,0,0,0,5.708252,22.06514,0.1661423,0,24.92969,-5.708253,3455.65,20921.1
690,34.5,-5.749853,-0.1673595,0.004466509,0,0,0,0,0,5.749853,22.22595,0.1673595,0,25.13623,-5.749853,3473.785,20921.9
695,34.75,-5.791453,-0.1685965,0.004499522,0,0,0,0,0,5.791453,22.38675,0.1685965,0,25.34321,-5.791453,3492.225,20925.1
700,35.0,-5.833053,-0.1695685,0.004525461,0,0,0,0,0,5.833053,22.54756,0.1695685,0,25.55061,-5.833053,3505.081,20895.7
705,35.25,-5.874919,-0.170677,0.004555046,0,0,0,0,0,5.874919,22.70939,0.170677,0,25.75977,-5.874919,3520.623,20882.4
710,35.5,-5.916519,-0.171772,0.00458427,0,0,0,0,0,5.916519,22.87019,0.171772,0,25.96804,-5.916519,3535.839,20868.6
715,35.75,-5.958119,-0.1733597,0.004626642,0,0,0,0,0,5.958119,23.031,0.1733597,0,26.17674,-5.958119,3561.08,20914.4
720,36.0,-5.999985,-0.1741883,0.004648756,0,0,0,0,0,5.999986,23.19283,0.1741883,0,26.38722,-5.999985,3570.578,20867.8
725,36.25,-6.041585,-0.1758328,0.004692643,0,0,0,0,0,6.041585,23.35364,0.1758328,0,26.5968,-6.041585,3596.741,20919.7
730,36.5,-6.083185,-0.1764383,0.004708804,0,0,0,0,0,6.083185,23.51444,0.1764383,0,26.80682,-6.083185,3601.555,20848.2
735,36.75,-6.124785,-0.1784713,0.004763063,0,0,0,0,0,6.124785,23.67524,0.1784713,0,27.01728,-6.124785,3635.396,20945.2
740,37.0,-6.166785,-0.1789465,0.004775744,0,0,0,0,0,6.166785,23.83759,0.1789465,0,27.23022,-6.166785,3637.322,20858
745,37.25,-6.208252,-0.1807791,0.004824651,0,0,0,0,0,6.208251,23.99788,0.1807791,0,27.4409,-6.208252,3666.837,20930.8
750,37.5,-6.249852,-0.1818779,0.004853975,0,0,0,0,0,6.249852,24.15868,0.1818779,0,27.6527,-6.249852,3681.319,20917.9
755,37.75,-6.291851,-0.1828541,0.004880031,0,0,0,0,0,6.291852,24.32103,0.1828541,0,27.86699,-6.291851,3693.157,20889.8
760,38.0,-6.333051,-0.1840967,0.004913192,0,0,0,0,0,6.333051,24.48029,0.1840967,0,28.07765,-6.333051,3710.429,20894.9
765,38.25,-6.374651,-0.1852737,0.004944604,0,0,0,0,0,6.374651,24.64109,0.1852737,0,28.29081,-6.374651,3726.2,20891.3
770,38.5,-6.416784,-0.1865733,0.004979287,0,0,0,0,0,6.416784,24.80396,0.1865733,0,28.50716,-6.416784,3744.227,20899.7
775,38.75,-6.457984,-0.1876289,0.005007461,0,0,0,0,0,6.457984,24.96322,0.1876289,0,28.71918,-6.457984,3757.438,20883.8
780,39.0,-6.499851,-0.1888074,0.005038912,0,0,0,0,0,6.499851,25.12505,0.1888074,0,28.93508,-6.499851,3772.883,20879.6
785,39.25,-6.541717,-0.1899454,0.005069284,0,0,0,0,0,6.541718,25.28689,0.1899454,0,29.15145,-6.541717,3787.42,20871
790,39.5,-6.583184,-0.191002,0.005097481,0,0,0,0,0,6.583184,25.44717,0.191002,0,29.36622,-6.583184,3800.316,20855
795,39.75,-6.624651,-0.1920595,0.005125704,0,0,0,0,0,6.62465,25.60746,0.1920595,0,29.58146,-6.624651,3813.141,20839.2
800,40.0,-6.666651,-0.1936267,0.00516753,0,0,0,0,0,6.66665,25.76981,0.1936267,0,29.79993,-6.666651,3835.867,20876.8
805,40.25,-6.708384,-0.1946011,0.005193535,0,0,0,0,0,6.708384,25.93113,0.1946011,0,30.01749,-6.708384,3846.793,20851.4
810,40.5,-6.74985,-0.1957273,0.00522359,0,0,0,0,0,6.74985,26.09142,0.1957273,0,30.23413,-6.74985,3860.681,20843.2
815,40.75,-6.791717,-0.1970093,0.005257806,0,0,0,0,0,6.791717,26.25325,0.1970093,0,30.45333,-6.791717,3877.461,20850.4
820,41.0,-6.833183,-0.1978908,0.005281331,0,0,0,0,0,6.833183,26.41354,0.1978908,0,30.67092,-6.833183,3886.344,20816.6
825,41.25,-6.874783,-0.1991381,0.005314619,0,0,0,0,0,6.874784,26.57435,0.1991381,0,30.88968,-6.874783,3902.294,20821
830,41.5,-6.91665,-0.2002361,0.005343924,0,0,0,0,0,6.91665,26.73618,0.2002361,0,31.11033,-6.91665,3915.163,20809.1
835,41.75,-6.958249,-0.2013036,0.005372412,0,0,0,0,0,6.95825,26.89698,0.2013036,0,31.33005,-6.958249,3927.395,20795
840,42.0,-6.999849,-0.2021221,0.005394255,0,0,0,0,0,6.999849,27.05779,0.202122,0,31.55027,-6.999849,3934.689,20755.5
845,42.25,-7.04145,-0.2037005,0.00543638,0,0,0,0,0,7.04145,27.21859,0.2037005,0,31.77096,-7.04145,3956.674,20794
850,42.5,-7.083316,-0.2043337,0.00545328,0,0,0,0,0,7.083316,27.38042,0.2043337,0,31.99357,-7.083316,3960.149,20735.3
855,42.75,-7.124916,-0.2057505,0.00549109,0,0,0,0,0,7.124916,27.54123,0.2057505,0,32.21524,-7.124916,3978.776,20757.2
860,43.0,-7.166382,-0.2066925,0.005516232,0,0,0,0,0,7.166382,27.70152,0.2066925,0,32.4367,-7.166382,3988.152,20731.6
865,43.25,-7.208516,-0.2077744,0.005545106,0,0,0,0,0,7.208516,27.86438,0.2077744,0,32.66223,-7.208516,3999.996,20718.3
870,43.5,-7.249849,-0.2084539,0.00556324,0,0,0,0,0,7.249849,28.02415,0.2084539,0,32.88396,-7.249849,4004.189,20667.5
875,43.75,-7.291449,-0.2098081,0.005599381,0,0,0,0,0,7.291449,28.18496,0.2098081,0,33.10762,-7.291449,4021.198,20683.1
880,44.0,-7.333449,-0.2107923,0.005625648,0,0,0,0,0,7.333449,28.34731,0.2107923,0,33.33395,-7.333449,4030.928,20661.1
885,44.25,-7.374915,-0.2118218,0.005653122,0,0,0,0,0,7.374915,28.5076,0.2118217,0,33.5579,-7.374915,4041.552,20645.3
890,44.5,-7.416382,-0.2127056,0.005676709,0,0,0,0,0,7.416382,28.66788,0.2127056,0,33.78235,-7.416382,4049.316,20615.5
895,44.75,-7.458249,-0.213721,0.005703809,0,0,0,0,0,7.458249,28.82972,0.213721,0,34.00949,-7.458249,4059.417,20597.6
900,45.0,-7.499715,-0.2147881,0.005732289,0,0,0,0,0,7.499715,28.99001,0.2147881,0,34.23496,-7.499715,4070.498,20586
905,45.25,-7.541448,-0.2159655,0.005763711,0,0,0,0,0,7.541448,29.15133,0.2159655,0,34.4624,-7.541448,4083.513,20584.3
910,45.5,-7.583181,-0.2169634,0.005790341,0,0,0,0,0,7.583181,29.31264,0.2169634,0,34.69035,-7.583181,4093.039,20565.6
915,45.75,-7.625048,-0.2177167,0.005810446,0,0,0,0,0,7.625048,29.47448,0.2177167,0,34.91956,-7.625048,4097.847,20523.7
920,46.0,-7.666515,-0.2184611,0.005830314,0,0,0,0,0,7.666515,29.63477,0.2184611,0,35.14709,-7.666515,4102.514,20482.5
925,46.25,-7.708248,-0.2198643,0.005867761,0,0,0,0,0,7.708248,29.79609,0.2198643,0,35.37661,-7.708248,4119.398,20502.5
930,46.5,-7.749981,-0.2205712,0.005886628,0,0,0,0,0,7.749981,29.95741,0.2205712,0,35.60667,-7.749981,4123.147,20457.6
935,46.75,-7.791581,-0.2218379,0.005920434,0,0,0,0,0,7.791581,30.11821,0.2218379,0,35.83651,-7.791581,4137.306,20465.3
940,47.0,-7.833314,-0.22264,0.005941841,0,0,0,0,0,7.833314,30.27953,0.2226401,0,36.06762,-7.833314,4142.68,20429.8
945,47.25,-7.874781,-0.2240116,0.005978446,0,0,0,0,0,7.874781,30.43982,0.2240116,0,36.29779,-7.874781,4158.618,20447.5
950,47.5,-7.916381,-0.2248292,0.006000266,0,0,0,0,0,7.916381,30.60062,0.2248292,0,36.52923,-7.916381,4164.148,20414.2
955,47.75,-7.958114,-0.2257253,0.00602418,0,0,0,0,0,7.958114,30.76194,0.2257253,0,36.76195,-7.958114,4171.026,20388.1
960,48.0,-7.999714,-0.2270872,0.006060527,0,0,0,0,0,7.999713,30.92274,0.2270872,0,36.99446,-7.999714,4186.446,20404.5
965,48.25,-8.041847,-0.2278663,0.00608132,0,0,0,0,0,8.041847,31.08561,0.2278663,0,37.23052,-8.041847,4190.905,20367.2
970,48.5,-8.083047,-0.2290607,0.006113197,0,0,0,0,0,8.083047,31.24487,0.2290607,0,37.46188,-8.083047,4203.137,20369.6
975,48.75,-8.125047,-0.2300708,0.006140154,0,0,0,0,0,8.125047,31.40722,0.2300708,0,37.69829,-8.125047,4211.703,20353.7
980,49.0,-8.166647,-0.2308415,0.006160723,0,0,0,0,0,8.166647,31.56802,0.2308415,0,37.93299,-8.166647,4215.904,20317.8
985,49.25,-8.208114,-0.2319879,0.006191319,0,0,0,0,0,8.208114,31.72831,0.2319879,0,38.1675,-8.208114,4226.918,20315.6
990,49.5,-8.250114,-0.2327984,0.006212949,0,0,0,0,0,8.250113,31.89066,0.2327984,0,38.40558,-8.250114,4231.598,20282.8
995,49.75,-8.29158,-0.2339348,0.006243276,0,0,0,0,0,8.29158,32.05095,0.2339348,0,38.6412,-8.29158,4242.247,20279.9
1000,50.0,-8.333313,-0.2349627,0.00627071,0,0,0,0,0,8.333313,32.21227,0.2349627,0,38.87889,-8.333313,4250.772,20267
1005,50.25,-8.374779,-0.2358969,0.006295642,0,0,0,0,0,8.37478,32.37255,0.2358969,0,39.11563,-8.374779,4257.582,20246.8
1010,50.5,-8.416513,-0.2367859,0.006319366,0,0,0,0,0,8.416513,32.53387,0.2367858,0,39.35445,-8.416513,4263.431,20222.3
1015,50.75,-8.458113,-0.2383258,0.006360466,0,0,0,0,0,8.458114,32.69468,0.2383258,0,39.59309,-8.458113,4280.932,20253.7
1020,51.0,-8.49958,-0.2384258,0.006363132,0,0,0,0,0,8.499579,32.85497,0.2384258,0,39.83152,-8.49958,4272.527,20163.4
1025,51.25,-8.541579,-0.2406161,0.006421587,0,0,0,0,0,8.541579,33.01731,0.2406161,0,40.0736,-8.541579,4301.351,20248.5
1030,51.5,-8.583046,-0.2406675,0.006422961,0,0,0,0,0,8.583046,33.1776,0.2406675,0,40.31319,-8.583046,4291.977,20155
1035,51.75,-8.624779,-0.2424182,0.006469683,0,0,0,0,0,8.624779,33.33892,0.2424182,0,40.55489,-8.624779,4312.76,20203.4
1040,52.0,-8.666646,-0.2424362,0.006470163,0,0,0,0,0,8.666646,33.50076,0.2424362,0,40.79796,-8.666646,4302.609,20107.3
1045,52.25,-8.708245,-0.2443009,0.006519928,0,0,0,0,0,8.708246,33.66156,0.2443009,0,41.04007,-8.708245,4325.219,20165.2
1050,52.5,-8.749845,-0.2444598,0.00652417,0,0,0,0,0,8.749846,33.82236,0.2444598,0,41.28276,-8.749845,4317.542,20082.3
1055,52.75,-8.791579,-0.246034,0.006566183,0,0,0,0,0,8.791579,33.98368,0.246034,0,41.52683,-8.791579,4334.752,20115.7
1060,53.0,-8.833311,-0.2465423,0.006579748,0,0,0,0,0,8.833311,34.145,0.2465423,0,41.77148,-8.833311,4333.093,20062
1065,53.25,-8.874779,-0.2478341,0.006614222,0,0,0,0,0,8.874779,34.30529,0.2478341,0,42.01518,-8.874779,4345.194,20072.9
1070,53.5,-8.916378,-0.248515,0.006632396,0,0,0,0,0,8.916378,34.46609,0.2485151,0,42.26025,-8.916378,4346.468,20034.2
1075,53.75,-8.958645,-0.2498133,0.006667044,0,0,0,0,0,8.958645,34.62947,0.2498133,0,42.50987,-8.958645,4358.281,20043.8
1080,54.0,-8.999712,-0.2507212,0.006691274,0,0,0,0,0,8.999712,34.78822,0.2507212,0,42.753,-8.999712,4363.499,20024.9
1085,54.25,-9.041311,-0.2517102,0.006717668,0,0,0,0,0,9.041311,34.94902,0.2517102,0,42.99989,-9.041311,4369.909,20011.4
1090,54.5,-9.083311,-0.2526062,0.006741582,0,0,0,0,0,9.083311,35.11137,0.2526062,0,43.24977,-9.083311,4374.521,19989.7
1095,54.75,-9.124778,-0.2536241,0.006768746,0,0,0,0,0,9.124778,35.27166,0.2536241,0,43.4971,-9.124778,4381.297,19979.1
1100,55.0,-9.166511,-0.2544651,0.006791192,0,0,0,0,0,9.166511,35.43298,0.2544651,0,43.74664,-9.166511,4384.871,19954.1
1105,55.25,-9.208244,-0.2557408,0.006825237,0,0,0,0,0,9.208244,35.5943,0.2557408,0,43.9968,-9.208244,4395.842,19963.2
1110,55.5,-9.249845,-0.2565335,0.006846392,0,0,0,0,0,9.249845,35.7551,0.2565334,0,44.24679,-9.249845,4398.458,19935
1115,55.75,-9.291577,-0.2578238,0.00688083,0,0,0,0,0,9.291577,35.91642,0.2578238,0,44.4982,-9.291577,4409.482,19945.3
1120,56.0,-9.333311,-0.2584126,0.006896544,0,0,0,0,0,9.333311,36.07774,0.2584127,0,44.75025,-9.333311,4408.427,19901.5
1125,56.25,-9.375044,-0.2597111,0.006931198,0,0,0,0,0,9.375044,36.23906,0.2597111,0,45.00294,-9.375044,4419.397,19912.4
1130,56.5,-9.416377,-0.2601761,0.006943606,0,0,0,0,0,9.416377,36.39883,0.2601761,0,45.25383,-9.416377,4416.215,19860.5
1135,56.75,-9.458377,-0.2615927,0.006981414,0,0,0,0,0,9.458377,36.56118,0.2615927,0,45.50942,-9.458377,4428.927,19880
1140,57.0,-9.49971,-0.2622179,0.006998099,0,0,0,0,0,9.49971,36.72095,0.2622179,0,45.76159,-9.49971,4428.33,19840.8
1145,57.25,-9.54131,-0.262892,0.007016091,0,0,0,0,0,9.54131,36.88176,0.262892,0,46.01603,-9.54131,4428.433,19805.1
1150,57.5,-9.58331,-0.2640312,0.007046494,0,0,0,0,0,9.58331,37.04411,0.2640312,0,46.27358,-9.58331,4436.183,19803.7
1155,57.75,-9.62491,-0.2646026,0.007061744,0,0,0,0,0,9.624909,37.20491,0.2646027,0,46.52933,-9.62491,4434.428,19760.8
1160,58.0,-9.66651,-0.2653892,0.007082734,0,0,0,0,0,9.66651,37.36571,0.2653892,0,46.78573,-9.66651,4436.22,19734.3
1165,58.25,-9.708243,-0.266344,0.007108218,0,0,0,0,0,9.708244,37.52703,0.266344,0,47.04363,-9.708243,4440.714,19720.1
1170,58.5,-9.74971,-0.2672939,0.00713357,0,0,0,0,0,9.74971,37.68732,0.267294,0,47.30052,-9.74971,4445.118,19706.3
1175,58.75,-9.791843,-0.2680548,0.007153875,0,0,0,0,0,9.791842,37.85019,0.2680548,0,47.56223,-9.791843,4446.12,19677.3
1180,59.0,-9.832909,-0.2687389,0.007172131,0,0,0,0,0,9.83291,38.00893,0.2687389,0,47.81798,-9.832909,4446.081,19645.2
1185,59.25,-9.875176,-0.2696977,0.007197721,0,0,0,0,0,9.875176,38.17231,0.2696977,0,48.08189,-9.875176,4450.185,19630.9
1190,59.5,-9.91651,-0.2705941,0.007221644,0,0,0,0,0,9.91651,38.33208,0.2705941,0,48.34064,-9.91651,4453.437,19614
1195,59.75,-9.958109,-0.2714491,0.007244462,0,0,0,0,0,9.958109,38.49288,0.2714491,0,48.60173,-9.958109,4455.86,19593.8
1200,60.0,-10.00011,-0.2722537,0.007265936,0,0,0,0,0,10.00011,38.65523,0.2722537,0,48.86603,-10.00011,4457.271,19569.3
1205,60.25,-10.04158,-0.2732204,0.007291735,0,0,0,0,0,10.04158,38.81553,0.2732204,0,49.12767,-10.04158,4461.41,19557.7
1210,60.5,-10.08304,-0.2741944,0.007317729,0,0,0,0,0,10.08304,38.97581,0.2741944,0,49.38998,-10.08304,4465.585,19546.7
1215,60.75,-10.12491,-0.2751908,0.007344321,0,0,0,0,0,10.12491,39.13765,0.2751908,0,49.65553,-10.12491,4469.927,19536.6
1220,61.0,-10.16651,-0.2760764,0.007367956,0,0,0,0,0,10.16651,39.29845,0.2760763,0,49.9201,-10.16651,4472.463,19519.3
1225,61.25,-10.20811,-0.2768283,0.007388023,0,0,0,0,0,10.20811,39.45925,0.2768283,0,50.18535,-10.20811,4472.764,19492.7
1230,61.5,-10.24998,-0.2780469,0.007420546,0,0,0,0,0,10.24998,39.62109,0.2780469,0,50.45303,-10.24998,4480.445,19498.6
1235,61.75,-10.29171,-0.2788653,0.007442388,0,0,0,0,0,10.29171,39.78241,0.2788653,0,50.72056,-10.29171,4481.627,19476.6
1240,62.0,-10.33317,-0.2800871,0.007474993,0,0,0,0,0,10.33317,39.94269,0.2800871,0,50.98709,-10.33317,4489.28,19483.5
1245,62.25,-10.37504,-0.2810153,0.007499767,0,0,0,0,0,10.37504,40.10453,0.2810153,0,51.25693,-10.37504,4492.021,19469.2
1250,62.5,-10.41664,-0.282241,0.007532478,0,0,0,0,0,10.41664,40.26533,0.282241,0,51.52576,-10.41664,4499.501,19476
1255,62.75,-10.45824,-0.2830384,0.007553759,0,0,0,0,0,10.45824,40.42614,0.2830384,0,51.79532,-10.45824,4500.066,19453.3
1260,63.0,-10.49997,-0.2842436,0.007585922,0,0,0,0,0,10.49997,40.58746,0.2842436,0,52.06648,-10.49997,4506.989,19458.5
1265,63.25,-10.54144,-0.2852658,0.007613203,0,0,0,0,0,10.54144,40.74774,0.2852658,0,52.33663,-10.54144,4510.995,19451.7
1270,63.5,-10.58317,-0.2862469,0.007639387,0,0,0,0,0,10.58317,40.90906,0.2862469,0,52.60926,-10.58317,4514.185,19441.6
1275,63.75,-10.62477,-0.2877041,0.007678278,0,0,0,0,0,10.62477,41.06986,0.2877041,0,52.88176,-10.62477,4524.82,19464.1
1280,64.0,-10.66637,-0.2884368,0.007697832,0,0,0,0,0,10.66637,41.23067,0.2884368,0,53.15501,-10.66637,4523.964,19437.5
1285,64.25,-10.70837,-0.2898737,0.00773618,0,0,0,0,0,10.70837,41.39302,0.2898737,0,53.43164,-10.70837,4533.942,19457.8
1290,64.5,-10.74944,-0.2903985,0.007750187,0,0,0,0,0,10.74944,41.55176,0.2903985,0,53.70286,-10.74944,4529.848,19418.5
1295,64.75,-10.79184,-0.2919684,0.007792084,0,0,0,0,0,10.79184,41.71566,0.2919684,0,53.98367,-10.79184,4541.565,19446.8
1300,65.0,-10.83344,-0.2927468,0.007812858,0,0,0,0,0,10.83344,41.87646,0.2927468,0,54.25995,-10.83344,4541.11,19423.7
1305,65.25,-10.87477,-0.294072,0.007848224,0,0,0,0,0,10.87477,42.03623,0.294072,0,54.53521,-10.87477,4549.126,19437.5
1310,65.5,-10.91677,-0.2948892,0.007870033,0,0,0,0,0,10.91677,42.19858,0.2948892,0,54.81569,-10.91677,4548.991,19416.5
1315,65.75,-10.95837,-0.2963202,0.007908224,0,0,0,0,0,10.95837,42.35939,0.2963202,0,55.09428,-10.95837,4558.349,19436.7
1320,66.0,-10.99984,-0.2969289,0.007924469,0,0,0,0,0,10.99984,42.51968,0.2969289,0,55.37275,-10.99984,4555.01,19403.2
1325,66.25,-11.04157,-0.2984995,0.007966385,0,0,0,0,0,11.04157,42.681,0.2984995,0,55.65379,-11.04157,4566.253,19432.1
1330,66.5,-11.08331,-0.2993475,0.007989018,0,0,0,0,0,11.08331,42.84232,0.2993475,0,55.93563,-11.08331,4566.338,19413.9
1335,66.75,-11.12491,-0.3007137,0.00802548,0,0,0,0,0,11.12491,43.00312,0.3007137,0,56.21736,-11.12491,4574.274,19429.6
1340,67.0,-11.16624,-0.3016878,0.008051476,0,0,0,0,0,11.16624,43.16289,0.3016877,0,56.49807,-11.16624,4576.226,19420.4
1345,67.25,-11.20837,-0.3030118,0.008086811,0,0,0,0,0,11.20837,43.32576,0.3030118,0,56.78503,-11.20837,4583.139,19432.3
1350,67.5,-11.24984,-0.3043679,0.008123002,0,0,0,0,0,11.24984,43.48604,0.3043679,0,57.06826,-11.24984,4590.63,19447.3
1355,67.75,-11.29144,-0.3053301,0.008148681,0,0,0,0,0,11.29144,43.64685,0.3053301,0,57.3532,-11.29144,4592.039,19436.9
1360,68.0,-11.33331,-0.3066355,0.008183519,0,0,0,0,0,11.3333,43.80868,0.3066354,0,57.64078,-11.33331,4598.428,19447.9
1365,68.25,-11.37491,-0.3078712,0.008216499,0,0,0,0,0,11.37491,43.96949,0.3078712,0,57.92737,-11.37491,4603.747,19454.9
1370,68.5,-11.41651,-0.3090593,0.008248206,0,0,0,0,0,11.4165,44.13029,0.3090593,0,58.21477,-11.41651,4608.249,19458.8
1375,68.75,-11.45811,-0.3102779,0.00828073,0,0,0,0,0,11.45811,44.29109,0.3102779,0,58.50301,-11.45811,4613.104,19464.6
1380,69.0,-11.49997,-0.3115118,0.00831366,0,0,0,0,0,11.49997,44.45293,0.3115118,0,58.79394,-11.49997,4617.995,19470.9
1385,69.25,-11.54157,-0.312667,0.008344489,0,0,0,0,0,11.54157,44.61373,0.312667,0,59.08384,-11.54157,4621.702,19472.6
1390,69.5,-11.58317,-0.3136724,0.008371321,0,0,0,0,0,11.58317,44.77453,0.3136724,0,59.3746,-11.58317,4623.101,19465.1
1395,69.75,-11.62517,-0.3149888,0.008406455,0,0,0,0,0,11.62517,44.93688,0.3149888,0,59.66901,-11.62517,4628.856,19476.1
1400,70.0,-11.66624,-0.3159118,0.008431086,0,0,0,0,0,11.66624,45.09563,0.3159118,0,59.95772,-11.66624,4629.035,19464.5
1405,70.25,-11.7081,-0.3173558,0.008469624,0,0,0,0,0,11.70811,45.25746,0.3173558,0,60.25291,-11.7081,4636.488,19483.5
1410,70.5,-11.74984,-0.3186884,0.00850519,0,0,0,0,0,11.74984,45.41878,0.3186884,0,60.54803,-11.74984,4642.236,19495.8
1415,70.75,-11.7913,-0.3201361,0.008543828,0,0,0,0,0,11.7913,45.57907,0.3201361,0,60.84213,-11.7913,4649.631,19515.5
1420,71.0,-11.83317,-0.3214494,0.008578877,0,0,0,0,0,11.83317,45.7409,0.3214494,0,61.13995,-11.83317,4654.821,19526.2
1425,71.25,-11.8749,-0.3228091,0.008615164,0,0,0,0,0,11.8749,45.90222,0.3228091,0,61.43771,-11.8749,4660.612,19539.9
1430,71.5,-11.9165,-0.323958,0.008645826,0,0,0,0,0,11.9165,46.06302,0.323958,0,61.73539,-11.9165,4663.297,19541
1435,71.75,-11.9581,-0.3255112,0.008687276,0,0,0,0,0,11.9581,46.22383,0.3255112,0,62.03397,-11.9581,4671.685,19566.4
1440,72.0,-11.99984,-0.3266886,0.0087187,0,0,0,0,0,11.99984,46.38515,0.3266886,0,62.3344,-11.99984,4674.518,19568.9
1445,72.25,-12.04157,-0.3279162,0.008751461,0,0,0,0,0,12.04157,46.54647,0.3279162,0,62.63574,-12.04157,4677.966,19574.3
1450,72.5,-12.08317,-0.3287718,0.008774297,0,0,0,0,0,12.08317,46.70727,0.3287718,0,62.93703,-12.08317,4676.063,19557.8
1455,72.75,-12.12504,-0.330484,0.008819991,0,0,0,0,0,12.12504,46.8691,0.330484,0,63.24115,-12.12504,4686.141,19591.8
1460,73.0,-12.1665,-0.3314969,0.008847023,0,0,0,0,0,12.1665,47.02939,0.3314969,0,63.5433,-12.1665,4686.322,19584.9
1465,73.25,-12.2081,-0.3340898,0.008916224,0,0,0,0,0,12.2081,47.19019,0.3340898,0,63.84733,-12.2081,4708.641,19670.8
1470,73.5,-12.24984,-0.3332309,0.008893301,0,0,0,0,0,12.24984,47.35151,0.3332309,0,64.15327,-12.24984,4682.188,19553.4
1475,73.75,-12.29144,-0.3372114,0.008999535,0,0,0,0,0,12.29144,47.51232,0.3372114,0,64.45917,-12.29144,4723.647,19720
1480,74.0,-12.33317,-0.3370917,0.00899634,0,0,0,0,0,12.33317,47.67364,0.3370917,0,64.76698,-12.33317,4707.457,19646.3
1485,74.25,-12.37477,-0.3397694,0.009067804,0,0,0,0,0,12.37477,47.83444,0.3397695,0,65.07477,-12.37477,4730.27,19735.8
1490,74.5,-12.41664,-0.3409649,0.009099707,0,0,0,0,0,12.41664,47.99628,0.3409649,0,65.38549,-12.41664,4732.186,19738.4
1495,74.75,-12.45837,-0.343492,0.009167151,0,0,0,0,0,12.45837,48.1576,0.343492,0,65.69618,-12.45837,4752.471,19818.1
1500,75.0,-12.49984,-0.3446492,0.009198035,0,0,0,0,0,12.49984,48.31788,0.3446492,0,66.00584,-12.49984,4753.739,19818.9
1505,75.25,-12.54184,-0.3467703,0.009254644,0,0,0,0,0,12.54184,48.48023,0.3467703,0,66.32046,-12.54184,4767.971,19874.1
1510,75.5,-12.5833,-0.3483783,0.009297557,0,0,0,0,0,12.5833,48.64052,0.3483783,0,66.63206,-12.5833,4775.177,19900.5
1515,75.75,-12.62477,-0.3500583,0.009342393,0,0,0,0,0,12.62477,48.80081,0.3500583,0,66.94465,-12.62477,4783.23,19930.8
1520,76.0,-12.66677,-0.3518901,0.009391282,0,0,0,0,0,12.66677,48.96316,0.3518901,0,67.26224,-12.66677,4793.013,19968.6
1525,76.25,-12.7081,-0.3529267,0.009418946,0,0,0,0,0,12.7081,49.12293,0.3529267,0,67.57579,-12.7081,4792.084,19962.3
1530,76.5,-12.74984,-0.3552871,0.00948194,0,0,0,0,0,12.74984,49.28425,0.3552871,0,67.89337,-12.74984,4808.837,20030
1535,76.75,-12.79144,-0.3566878,0.009519324,0,0,0,0,0,12.79144,49.44505,0.3566878,0,68.21094,-12.79144,4812.489,20043.6
1540,77.0,-12.83317,-0.3586463,0.00957159,0,0,0,0,0,12.83317,49.60637,0.3586463,0,68.53055,-12.83317,4823.471,20088.1
1545,77.25,-12.87477,-0.3607639,0.009628105,0,0,0,0,0,12.87477,49.76718,0.3607639,0,68.85016,-12.87477,4836.469,20141.5
1550,77.5,-12.9165,-0.3617774,0.009655153,0,0,0,0,0,12.9165,49.92849,0.3617774,0,69.17181,-12.9165,4834.481,20132.8
1555,77.75,-12.9585,-0.3643526,0.009723881,0,0,0,0,0,12.9585,50.09084,0.3643526,0,69.49657,-12.9585,4853.107,20210.4
1560,78.0,-12.99983,-0.3656562,0.009758671,0,0,0,0,0,12.99983,50.25062,0.3656562,0,69.81721,-12.99983,4854.879,20218.2
1565,78.25,-13.04157,-0.3684958,0.009834455,0,0,0,0,0,13.04157,50.41194,0.3684958,0,70.142,-13.04157,4876.716,20310
1570,78.5,-13.0833,-0.3690002,0.009847918,0,0,0,0,0,13.0833,50.57326,0.3690002,0,70.46785,-13.0833,4867.505,20272.9
1575,78.75,-13.1249,-0.3715956,0.009917184,0,0,0,0,0,13.1249,50.73406,0.3715956,0,70.79372,-13.1249,4885.794,20350.8
1580,79.0,-13.1665,-0.3733039,0.009962773,0,0,0,0,0,13.1665,50.89486,0.3733039,0,71.12065,-13.1665,4892.233,20379.8
1585,79.25,-13.20797,-0.3753978,0.01001866,0,0,0,0,0,13.20797,51.05515,0.3753978,0,71.4476,-13.20797,4903.616,20429.7
1590,79.5,-13.24997,-0.3775628,0.01007644,0,0,0,0,0,13.24997,51.2175,0.3775628,0,71.77985,-13.24997,4915.538,20482.4
1595,79.75,-13.29143,-0.3794067,0.01012565,0,0,0,0,0,13.29143,51.37779,0.3794067,0,72.10897,-13.29143,4923.313,20518.3
1600,80.0,-13.33303,-0.3822645,0.01020192,0,0,0,0,0,13.33303,51.53859,0.3822646,0,72.44024,-13.33303,4943.993,20608.3
1605,80.25,-13.37503,-0.3831653,0.01022596,0,0,0,0,0,13.37503,51.70094,0.3831653,0,72.77581,-13.37503,4939.04,20592
1610,80.50001,-13.41623,-0.3861075,0.01030448,0,0,0,0,0,13.41623,51.8602,0.3861075,0,73.10609,-13.41623,4960.555,20686.4
1615,80.75001,-13.45837,-0.3877004,0.01034699,0,0,0,0,0,13.45837,52.02307,0.3877004,0,73.44499,-13.45837,4964.169,20706.7
1620,81.00001,-13.49997,-0.3905873,0.01042404,0,0,0,0,0,13.49997,52.18387,0.3905873,0,73.78071,-13.49997,4984.371,20796.6
1625,81.25001,-13.5413,-0.3920152,0.01046214,0,0,0,0,0,13.5413,52.34364,0.3920152,0,74.11541,-13.5413,4985.876,20808.9
1630,81.50001,-13.58343,-0.3951373,0.01054547,0,0,0,0,0,13.58343,52.50651,0.3951373,0,74.45775,-13.58343,5008.41,20909.6
1635,81.75001,-13.62503,-0.3971338,0.01059875,0,0,0,0,0,13.62503,52.66731,0.3971338,0,74.7969,-13.62503,5016.673,20951.1
1640,82.00001,-13.66637,-0.4004012,0.01068595,0,0,0,0,0,13.66637,52.82708,0.4004012,0,75.13502,-13.66637,5040.874,21059.6
1645,82.25001,-13.70823,-0.4015492,0.01071659,0,0,0,0,0,13.70823,52.98892,0.4015492,0,75.47868,-13.70823,5037.984,21055.5
1650,82.50001,-13.74997,-0.4050233,0.01080931,0,0,0,0,0,13.74997,53.15024,0.4050233,0,75.82242,-13.74997,5064.134,21173.2
1655,82.75001,-13.79143,-0.4063912,0.01084581,0,0,0,0,0,13.79143,53.31052,0.4063912,0,76.16514,-13.79143,5063.853,21180.8
1660,83.00001,-13.83303,-0.4091844,0.01092036,0,0,0,0,0,13.83303,53.47133,0.4091844,0,76.51015,-13.83303,5081.097,21262.2
1665,83.25001,-13.8749,-0.4112082,0.01097437,0,0,0,0,0,13.8749,53.63316,0.4112082,0,76.85857,-13.8749,5088.467,21302.9
1670,83.50001,-13.9165,-0.413932,0.01104706,0,0,0,0,0,13.9165,53.79396,0.4139321,0,77.20598,-13.9165,5104.41,21379.9
1675,83.75001,-13.95797,-0.4156472,0.01109284,0,0,0,0,0,13.95797,53.95426,0.4156471,0,77.55349,-13.95797,5107.779,21404.7
1680,84.00001,-13.99997,-0.4189914,0.01118209,0,0,0,0,0,13.99997,54.11661,0.4189914,0,77.90669,-13.99997,5130.721,21512.2
1685,84.25001,-14.04157,-0.4209463,0.01123426,0,0,0,0,0,14.04156,54.27741,0.4209462,0,78.25776,-14.04157,5136.594,21548.6
1690,84.50001,-14.08317,-0.4240727,0.0113177,0,0,0,0,0,14.08317,54.43821,0.4240727,0,78.61008,-14.08317,5156.545,21644.5
1695,84.75001,-14.1249,-0.4260646,0.01137086,0,0,0,0,0,14.1249,54.59953,0.4260646,0,78.96478,-14.1249,5162.423,21681.9
1700,85.00001,-14.16677,-0.4293283,0.01145796,0,0,0,0,0,14.16677,54.76137,0.4293283,0,79.32188,-14.16677,5183.425,21783.4
1705,85.25001,-14.20823,-0.4316081,0.0115188,0,0,0,0,0,14.20823,54.92165,0.4316081,0,79.67682,-14.20823,5192.485,21835.2
1710,85.50001,-14.2497,-0.4344857,0.0115956,0,0,0,0,0,14.2497,55.08194,0.4344857,0,80.03303,-14.2497,5208.519,21916.8
1715,85.75001,-14.29183,-0.4367635,0.01165639,0,0,0,0,0,14.29183,55.2448,0.4367635,0,80.39627,-14.29183,5216.84,21966.7
1720,86.00001,-14.33303,-0.4398921,0.01173989,0,0,0,0,0,14.33303,55.40407,0.4398921,0,80.75275,-14.33303,5235.512,22060.5
1725,86.25001,-14.37463,-0.4425934,0.01181198,0,0,0,0,0,14.37463,55.56487,0.4425935,0,81.11398,-14.37463,5248.669,22131.7
1730,86.50001,-14.41676,-0.4457003,0.0118949,0,0,0,0,0,14.41676,55.72773,0.4457003,0,81.48117,-14.41676,5266.141,22222
1735,86.75001,-14.45796,-0.4480874,0.0119586,0,0,0,0,0,14.45796,55.88699,0.4480874,0,81.84154,-14.45796,5275.301,22277.3
1740,87.00001,-14.49983,-0.4516671,0.01205414,0,0,0,0,0,14.49983,56.04882,0.4516671,0,82.20908,-14.49983,5297.936,22390.5
1745,87.25001,-14.5417,-0.4541305,0.01211988,0,0,0,0,0,14.5417,56.21066,0.4541306,0,82.57798,-14.5417,5307.217,22447.8
1750,87.50001,-14.58316,-0.4573268,0.01220519,0,0,0,0,0,14.58317,56.37095,0.4573268,0,82.9447,-14.58316,5325.007,22541.5
1755,87.75001,-14.62476,-0.4599269,0.01227458,0,0,0,0,0,14.62476,56.53175,0.4599269,0,83.31394,-14.62476,5335.544,22605.1
1760,88.00001,-14.66663,-0.4632578,0.01236347,0,0,0,0,0,14.66663,56.69359,0.4632578,0,83.68694,-14.66663,5354.176,22703.9
1765,88.25001,-14.70836,-0.4654686,0.01242248,0,0,0,0,0,14.70836,56.85491,0.4654686,0,84.06015,-14.70836,5359.689,22747.5
1770,88.50001,-14.74983,-0.4690115,0.01251703,0,0,0,0,0,14.74983,57.01519,0.4690115,0,84.43235,-14.74983,5380.421,22856.2
1775,88.75001,-14.79156,-0.4714271,0.0125815,0,0,0,0,0,14.79156,57.17651,0.4714271,0,84.80835,-14.79156,5387.836,22909.1
1780,89.00001,-14.8333,-0.4746643,0.01266789,0,0,0,0,0,14.8333,57.33783,0.4746643,0,85.18576,-14.8333,5404.398,23001.5
1785,89.25001,-14.87476,-0.4773133,0.01273859,0,0,0,0,0,14.87476,57.49812,0.4773133,0,85.56219,-14.87476,5414.139,23065.4
1790,89.50001,-14.91663,-0.4803471,0.01281955,0,0,0,0,0,14.91663,57.65995,0.4803471,0,85.94369,-14.91663,5427.805,23146.8
1795,89.75001,-14.9581,-0.4835951,0.01290624,0,0,0,0,0,14.9581,57.82024,0.4835951,0,86.32298,-14.9581,5443.82,23238.7
1800,90.00001,-14.99983,-0.4861134,0.01297345,0,0,0,0,0,14.99983,57.98156,0.4861134,0,86.70617,-14.99983,5451.24,23294.8
1801,90.03001,-15.0049,-0.4870673,0.0129989,0,0,0,0,0,15.0049,58.00115,0.4870673,0,86.75279,-15.0049,5459.39,23332.6