File: GFBaking/data/XG/XG_Compression_Data/XG_Compression_Specimen8.csv
Time sec,Extension mm,Load kgf,Compressive stress MPa,Cycle Count ,Total Cycle Count ,Repetitions Count ,Marked Data ,PIP Count ,Compressive extension mm,Compressive strain %,Compressive load kgf,Displacement (Strain 1) mm,True strain %,Corrected Position mm,True stress Pa
0,0,-0.006573745,0.0001754408,0,0,0,0,0,0,0,0.006573745,0,0,0,175.4408
0.2,-0.02639994,-0.008292532,0.000221312,0,0,0,0,0,0.02639993,0.1020485,0.008292533,0,0.1021006,-0.02639994,221.0861
0.4,-0.06426651,-0.01002528,0.0002675557,0,0,0,0,0,0.06426651,0.248421,0.01002528,0,0.2487301,-0.06426651,266.891
0.6,-0.09919976,-0.01175382,0.0003136872,0,0,0,0,0,0.09919976,0.3834548,0.01175382,0,0.3841919,-0.09919976,312.4844
0.8,-0.1330664,-0.0130709,0.0003488376,0,0,0,0,0,0.1330664,0.5143655,0.0130709,0,0.5156929,-0.1330664,347.0433
1,-0.1666663,-0.01433748,0.0003826402,0,0,0,0,0,0.1666663,0.6442453,0.01433748,0,0.6463295,-0.1666663,380.175
1.2,-0.1998662,-0.01560008,0.0004163366,0,0,0,0,0,0.1998662,0.772579,0.01560008,0,0.7755788,-0.1998662,413.1201
1.4,-0.2331994,-0.01664431,0.000444205,0,0,0,0,0,0.2331994,0.901428,0.01664431,0,0.9055155,-0.2331994,440.2008
1.6,-0.266666,-0.0178961,0.000477613,0,0,0,0,0,0.2666661,1.030793,0.0178961,0,1.036142,-0.266666,472.6898
1.8,-0.3001326,-0.01895428,0.0005058539,0,0,0,0,0,0.3001326,1.160157,0.01895428,0,1.166939,-0.3001326,499.9852
2,-0.3333325,-0.02024097,0.0005401932,0,0,0,0,0,0.3333325,1.288491,0.02024097,0,1.296864,-0.3333325,533.2328
2.2,-0.3665324,-0.02123792,0.0005667998,0,0,0,0,0,0.3665324,1.416824,0.02123792,0,1.426957,-0.3665324,558.7693
2.4,-0.3998657,-0.02263597,0.0006041112,0,0,0,0,0,0.3998657,1.545673,0.02263597,0,1.557743,-0.3998657,594.7736
2.6,-0.4331989,-0.02394825,0.0006391335,0,0,0,0,0,0.4331989,1.674522,0.02394825,0,1.688701,-0.4331989,628.431
2.8,-0.4663989,-0.02465636,0.0006580315,0,0,0,0,0,0.4663989,1.802856,0.02465636,0,1.819306,-0.4663989,646.1681
3,-0.4997322,-0.02606454,0.0006956133,0,0,0,0,0,0.4997322,1.931705,0.02606454,0,1.950606,-0.4997322,682.1761
3.2,-0.5331987,-0.02710959,0.0007235037,0,0,0,0,0,0.5331987,2.061069,0.02710959,0,2.082606,-0.5331987,708.5918
3.4,-0.5663986,-0.02806707,0.0007490569,0,0,0,0,0,0.5663986,2.189403,0.02806707,0,2.213726,-0.5663986,732.657
3.6,-0.5999985,-0.02923324,0.0007801797,0,0,0,0,0,0.5999985,2.319283,0.02923324,0,2.346602,-0.5999985,762.0852
3.8,-0.6331985,-0.03064292,0.0008178015,0,0,0,0,0,0.6331985,2.447617,0.03064292,0,2.478069,-0.6331985,797.7849
4,-0.666665,-0.03166981,0.0008452073,0,0,0,0,0,0.666665,2.576981,0.03166981,0,2.610767,-0.666665,823.4265
4.2,-0.6999983,-0.03268762,0.0008723707,0,0,0,0,0,0.6999983,2.70583,0.03268762,0,2.743112,-0.6999983,848.7658
4.4,-0.7333315,-0.03373957,0.0009004454,0,0,0,0,0,0.7333316,2.834679,0.03373957,0,2.875632,-0.7333315,874.9206
4.6,-0.7665314,-0.03477097,0.0009279713,0,0,0,0,0,0.7665315,2.963013,0.03477097,0,3.007797,-0.7665314,900.4754
4.8,-0.7999981,-0.03577032,0.000954642,0,0,0,0,0,0.799998,3.092377,0.03577032,0,3.141201,-0.7999981,925.1209
5,-0.8334646,-0.0372988,0.0009954342,0,0,0,0,0,0.8334646,3.221742,0.03729879,0,3.274782,-0.8334646,963.3639
5.2,-0.8665312,-0.03844365,0.001025988,0,0,0,0,0,0.8665312,3.34956,0.03844365,0,3.406943,-0.8665312,991.6222
5.4,-0.8998645,-0.03899657,0.001040745,0,0,0,0,0,0.8998645,3.478409,0.03899657,0,3.540346,-0.8998645,1004.543
5.6,-0.9331977,-0.04028656,0.001075172,0,0,0,0,0,0.9331977,3.607258,0.04028656,0,3.673928,-0.9331977,1036.388
5.8,-0.9663976,-0.04111481,0.001097276,0,0,0,0,0,0.9663976,3.735592,0.04111481,0,3.807153,-0.9663976,1056.287
6,-0.9997309,-0.0417466,0.001114138,0,0,0,0,0,0.9997309,3.864441,0.0417466,0,3.941092,-0.9997309,1071.082
6.2,-1.033064,-0.04286016,0.001143857,0,0,0,0,0,1.033064,3.99329,0.04286017,0,4.07521,-1.033064,1098.179
6.4,-1.066397,-0.04398206,0.001173798,0,0,0,0,0,1.066397,4.122139,0.04398206,0,4.209509,-1.066397,1125.412
6.6,-1.099997,-0.04505533,0.001202441,0,0,0,0,0,1.099997,4.252019,0.04505533,0,4.345064,-1.099997,1151.313
6.8,-1.133331,-0.04599787,0.001227596,0,0,0,0,0,1.133331,4.380868,0.04599787,0,4.479726,-1.133331,1173.817
7,-1.166664,-0.04684833,0.001250293,0,0,0,0,0,1.166664,4.509717,0.04684833,0,4.614569,-1.166664,1193.909
7.2,-1.199997,-0.04761888,0.001270858,0,0,0,0,0,1.199997,4.638566,0.04761887,0,4.749595,-1.199997,1211.908
7.4,-1.23333,-0.04846648,0.001293479,0,0,0,0,0,1.23333,4.767416,0.04846648,0,4.884803,-1.23333,1231.813
7.6,-1.26653,-0.0491929,0.001312865,0,0,0,0,0,1.26653,4.895749,0.0491929,0,5.019652,-1.26653,1248.591
7.8,-1.29973,-0.05014422,0.001338254,0,0,0,0,0,1.29973,5.024083,0.05014423,0,5.154683,-1.29973,1271.019
8,-1.33333,-0.05101277,0.001361434,0,0,0,0,0,1.33333,5.153962,0.05101277,0,5.291527,-1.33333,1291.266
8.200001,-1.366797,-0.05176073,0.001381396,0,0,0,0,0,1.366797,5.283327,0.05176073,0,5.428014,-1.366797,1308.412
8.400001,-1.399997,-0.05270897,0.001406703,0,0,0,0,0,1.399997,5.411661,0.05270897,0,5.563598,-1.399997,1330.577
8.6,-1.43333,-0.05358675,0.001430129,0,0,0,0,0,1.43333,5.54051,0.05358675,0,5.699912,-1.43333,1350.892
8.8,-1.466663,-0.05466475,0.001458899,0,0,0,0,0,1.466663,5.669359,0.05466475,0,5.836411,-1.466663,1376.188
9,-1.499863,-0.05584637,0.001490434,0,0,0,0,0,1.499863,5.797692,0.05584637,0,5.972551,-1.499863,1404.023
9.200001,-1.53293,-0.05663845,0.001511573,0,0,0,0,0,1.53293,5.92551,0.05663845,0,6.108328,-1.53293,1422.005
9.400001,-1.566396,-0.05790458,0.001545364,0,0,0,0,0,1.566396,6.054875,0.05790458,0,6.245935,-1.566396,1451.794
9.6,-1.599729,-0.05934984,0.001583935,0,0,0,0,0,1.599729,6.183724,0.05934983,0,6.383183,-1.599729,1485.989
9.8,-1.633196,-0.05926031,0.001581546,0,0,0,0,0,1.633196,6.313088,0.05926031,0,6.521169,-1.633196,1481.701
10,-1.666663,-0.06007265,0.001603225,0,0,0,0,0,1.666663,6.442453,0.06007265,0,6.659346,-1.666663,1499.938
10.2,-1.699863,-0.061548,0.0016426,0,0,0,0,0,1.699862,6.570787,0.061548,0,6.796611,-1.699863,1534.668
10.4,-1.733196,-0.06156091,0.001642944,0,0,0,0,0,1.733196,6.699636,0.06156091,0,6.934617,-1.733196,1532.873
10.6,-1.766662,-0.06246893,0.001667177,0,0,0,0,0,1.766662,6.829,0.06246893,0,7.073367,-1.766662,1553.326
10.8,-1.799862,-0.0641616,0.001712352,0,0,0,0,0,1.799862,6.957334,0.06416161,0,7.211202,-1.799862,1593.218
11,-1.833062,-0.06418329,0.00171293,0,0,0,0,0,1.833062,7.085668,0.06418329,0,7.349227,-1.833062,1591.558
11.2,-1.866529,-0.06553985,0.001749134,0,0,0,0,0,1.866529,7.215032,0.06553984,0,7.488554,-1.866529,1622.934
11.4,-1.900129,-0.06636922,0.001771269,0,0,0,0,0,1.900129,7.344912,0.06636922,0,7.628632,-1.900129,1641.171
11.6,-1.933329,-0.06687823,0.001784853,0,0,0,0,0,1.933329,7.473245,0.06687824,0,7.767234,-1.933329,1651.467
11.8,-1.966662,-0.06774003,0.001807853,0,0,0,0,0,1.966662,7.602095,0.06774003,0,7.906588,-1.966662,1670.418
12,-2.000128,-0.067763,0.001808466,0,0,0,0,0,2.000128,7.731459,0.067763,0,8.046693,-2.000128,1668.645
12.2,-2.033328,-0.06895911,0.001840388,0,0,0,0,0,2.033328,7.859793,0.06895911,0,8.185878,-2.033328,1695.737
12.4,-2.066395,-0.06904616,0.001842711,0,0,0,0,0,2.066395,7.987611,0.06904616,0,8.324696,-2.066395,1695.523
12.6,-2.099728,-0.06971367,0.001860526,0,0,0,0,0,2.099728,8.11646,0.06971367,0,8.464828,-2.099728,1709.517
12.8,-2.133195,-0.07040182,0.001878891,0,0,0,0,0,2.133195,8.245825,0.07040182,0,8.605719,-2.133195,1723.961
13,-2.166528,-0.07174058,0.00191462,0,0,0,0,0,2.166528,8.374674,0.07174058,0,8.746246,-2.166528,1754.277
13.2,-2.199861,-0.07256441,0.001936607,0,0,0,0,0,2.199862,8.503523,0.07256441,0,8.886972,-2.199861,1771.927
13.4,-2.233328,-0.0734181,0.00195939,0,0,0,0,0,2.233328,8.632887,0.0734181,0,9.028458,-2.233328,1790.238
13.6,-2.266661,-0.07518529,0.002006553,0,0,0,0,0,2.266661,8.761737,0.07518528,0,9.169582,-2.266661,1830.744
13.8,-2.299994,-0.07517748,0.002006345,0,0,0,0,0,2.299994,8.890586,0.07517748,0,9.310904,-2.299994,1827.969
14,-2.333194,-0.07633705,0.002037291,0,0,0,0,0,2.333194,9.018919,0.07633705,0,9.45186,-2.333194,1853.55
14.2,-2.366394,-0.07762989,0.002071795,0,0,0,0,0,2.366394,9.147253,0.07762989,0,9.593015,-2.366394,1882.282
14.4,-2.399861,-0.07780617,0.002076499,0,0,0,0,0,2.399861,9.276617,0.07780617,0,9.735506,-2.399861,1883.87
14.6,-2.433327,-0.07846144,0.002093987,0,0,0,0,0,2.433327,9.405982,0.07846144,0,9.8782,-2.433327,1897.027
14.8,-2.466527,-0.07915267,0.002112435,0,0,0,0,0,2.466527,9.534315,0.07915267,0,10.01996,-2.466527,1911.029
15,-2.499994,-0.07950716,0.002121896,0,0,0,0,0,2.499994,9.663679,0.07950716,0,10.16306,-2.499994,1916.842
15.2,-2.533461,-0.08156395,0.002176787,0,0,0,0,0,2.533461,9.793044,0.08156395,0,10.30636,-2.533461,1963.614
15.4,-2.566661,-0.08166188,0.002179401,0,0,0,0,0,2.56666,9.921378,0.08166188,0,10.44873,-2.566661,1963.174
15.6,-2.599594,-0.08199627,0.002188325,0,0,0,0,0,2.599593,10.04868,0.08199628,0,10.59015,-2.599594,1968.427
15.8,-2.63306,-0.08303495,0.002216046,0,0,0,0,0,2.63306,10.17805,0.08303495,0,10.73408,-2.63306,1990.495
16,-2.666527,-0.08304065,0.002216198,0,0,0,0,0,2.666527,10.30741,0.08304065,0,10.8782,-2.666527,1987.765
16.2,-2.69986,-0.08345811,0.002227339,0,0,0,0,0,2.69986,10.43626,0.08345811,0,11.02196,-2.69986,1994.888
16.4,-2.733193,-0.08465092,0.002259173,0,0,0,0,0,2.733193,10.56511,0.08465093,0,11.16593,-2.733193,2020.489
16.6,-2.766527,-0.08469925,0.002260463,0,0,0,0,0,2.766526,10.69396,0.08469925,0,11.3101,-2.766527,2018.73
16.8,-2.799993,-0.08573777,0.002288179,0,0,0,0,0,2.799993,10.82332,0.08573777,0,11.45506,-2.799993,2040.522
17,-2.833326,-0.08710596,0.002324693,0,0,0,0,0,2.833326,10.95217,0.08710596,0,11.59965,-2.833326,2070.089
17.2,-2.866393,-0.08782427,0.002343863,0,0,0,0,0,2.866393,11.07999,0.08782427,0,11.7433,-2.866393,2084.164
17.4,-2.899726,-0.08869447,0.002367087,0,0,0,0,0,2.899727,11.20884,0.08869447,0,11.88831,-2.899726,2101.764
17.6,-2.933193,-0.08959273,0.00239106,0,0,0,0,0,2.933193,11.3382,0.08959273,0,12.03411,-2.933193,2119.957
17.8,-2.966793,-0.09078532,0.002422888,0,0,0,0,0,2.966793,11.46808,0.09078532,0,12.1807,-2.966793,2145.03
18,-2.999859,-0.09182407,0.002450611,0,0,0,0,0,2.999859,11.5959,0.09182407,0,12.32518,-2.999859,2166.44
18.2,-3.033193,-0.09183593,0.002450927,0,0,0,0,0,3.033193,11.72475,0.09183592,0,12.47104,-3.033193,2163.562
18.4,-3.066793,-0.09288518,0.002478929,0,0,0,0,0,3.066793,11.85463,0.09288517,0,12.61828,-3.066793,2185.062
18.6,-3.099859,-0.09345941,0.002494255,0,0,0,0,0,3.099859,11.98245,0.09345941,0,12.76339,-3.099859,2195.382
18.8,-3.132926,-0.09463218,0.002525554,0,0,0,0,0,3.132926,12.11026,0.09463218,0,12.90872,-3.132926,2219.702
19,-3.166392,-0.09518983,0.002540436,0,0,0,0,0,3.166392,12.23963,0.09518982,0,13.05602,-3.166392,2229.496
19.2,-3.199859,-0.09629881,0.002570033,0,0,0,0,0,3.199859,12.36899,0.09629881,0,13.20353,-3.199859,2252.146
19.4,-3.233192,-0.09740232,0.002599484,0,0,0,0,0,3.233192,12.49784,0.09740233,0,13.35067,-3.233192,2274.604
19.6,-3.266525,-0.09754093,0.002603183,0,0,0,0,0,3.266526,12.62669,0.09754092,0,13.49804,-3.266525,2274.487
19.8,-3.299992,-0.09851176,0.002629092,0,0,0,0,0,3.299992,12.75606,0.09851176,0,13.6462,-3.299992,2293.724
20,-3.333325,-0.09947464,0.00265479,0,0,0,0,0,3.333325,12.88491,0.09947464,0,13.794,-3.333325,2312.723
20.2,-3.366658,-0.1001532,0.002672899,0,0,0,0,0,3.366658,13.01375,0.1001532,0,13.94202,-3.366658,2325.054
20.4,-3.399858,-0.1010013,0.002695534,0,0,0,0,0,3.399858,13.14209,0.1010013,0,14.08966,-3.399858,2341.284
20.6,-3.433058,-0.101774,0.002716154,0,0,0,0,0,3.433058,13.27042,0.101774,0,14.23752,-3.433058,2355.709
20.8,-3.466658,-0.1028346,0.002744461,0,0,0,0,0,3.466658,13.4003,0.1028346,0,14.38739,-3.466658,2376.695
21,-3.499991,-0.1038698,0.002772087,0,0,0,0,0,3.499991,13.52915,0.1038698,0,14.53628,-3.499991,2397.047
21.2,-3.533191,-0.1042335,0.002781795,0,0,0,0,0,3.533191,13.65749,0.1042335,0,14.68481,-3.533191,2401.872
21.4,-3.566658,-0.1052923,0.002810052,0,0,0,0,0,3.566658,13.78685,0.1052923,0,14.83475,-3.566658,2422.635
21.6,-3.600125,-0.1063118,0.002837261,0,0,0,0,0,3.600125,13.91621,0.1063118,0,14.98491,-3.600125,2442.422
21.8,-3.633325,-0.1068643,0.002852005,0,0,0,0,0,3.633325,14.04455,0.1068643,0,15.1341,-3.633325,2451.454
22,-3.666391,-0.1080898,0.002884713,0,0,0,0,0,3.666391,14.17237,0.1080898,0,15.28292,-3.666391,2475.881
22.2,-3.699591,-0.1090576,0.002910542,0,0,0,0,0,3.699591,14.3007,0.1090576,0,15.43255,-3.699591,2494.314
22.4,-3.733191,-0.1100345,0.002936613,0,0,0,0,0,3.733191,14.43058,0.1100345,0,15.58422,-3.733191,2512.843
22.6,-3.766524,-0.1108131,0.002957392,0,0,0,0,0,3.766524,14.55943,0.1108131,0,15.73491,-3.766524,2526.813
22.8,-3.799857,-0.1117849,0.002983327,0,0,0,0,0,3.799857,14.68828,0.1117849,0,15.88583,-3.799857,2545.128
23,-3.833191,-0.1127914,0.003010189,0,0,0,0,0,3.83319,14.81713,0.1127914,0,16.03698,-3.833191,2564.166
23.2,-3.866657,-0.1137762,0.00303647,0,0,0,0,0,3.866657,14.94649,0.1137762,0,16.18896,-3.866657,2582.625
23.4,-3.900124,-0.1146888,0.003060828,0,0,0,0,0,3.900124,15.07586,0.1146888,0,16.34117,-3.900124,2599.382
23.6,-3.93319,-0.1155455,0.00308369,0,0,0,0,0,3.93319,15.20367,0.1155455,0,16.4918,-3.93319,2614.855
23.8,-3.966391,-0.1165066,0.003109342,0,0,0,0,0,3.966391,15.33201,0.1165066,0,16.64326,-3.966391,2632.617
24,-3.999857,-0.1174865,0.003135492,0,0,0,0,0,3.999857,15.46137,0.1174865,0,16.79616,-3.999857,2650.702
24.2,-4.033323,-0.1184055,0.00316002,0,0,0,0,0,4.033323,15.59074,0.1184055,0,16.9493,-4.033323,2667.349
24.4,-4.066524,-0.1193802,0.003186032,0,0,0,0,0,4.066524,15.71907,0.1193802,0,17.10146,-4.066524,2685.218
24.6,-4.099857,-0.120393,0.003213061,0,0,0,0,0,4.099856,15.84792,0.120393,0,17.25445,-4.099857,2703.858
24.8,-4.133457,-0.1212549,0.003236063,0,0,0,0,0,4.133457,15.9778,0.1212549,0,17.40891,-4.133457,2719.012
25,-4.166523,-0.122229,0.003262061,0,0,0,0,0,4.166523,16.10562,0.122229,0,17.56115,-4.166523,2736.686
25.2,-4.199723,-0.123158,0.003286853,0,0,0,0,0,4.199723,16.23395,0.123158,0,17.71424,-4.199723,2753.267
25.4,-4.233056,-0.1241288,0.003312764,0,0,0,0,0,4.233056,16.3628,0.1241288,0,17.86818,-4.233056,2770.703
25.6,-4.266523,-0.1252276,0.003342088,0,0,0,0,0,4.266523,16.49216,0.1252276,0,18.02297,-4.266523,2790.906
25.8,-4.299856,-0.1260303,0.003363509,0,0,0,0,0,4.299856,16.62101,0.1260303,0,18.17739,-4.299856,2804.46
26,-4.333323,-0.126839,0.003385091,0,0,0,0,0,4.333323,16.75038,0.126839,0,18.33266,-4.333323,2818.076
26.2,-4.366523,-0.1277011,0.003408101,0,0,0,0,0,4.366523,16.87871,0.1277011,0,18.48693,-4.366523,2832.858
26.4,-4.399989,-0.1284131,0.003427103,0,0,0,0,0,4.399989,17.00808,0.1284131,0,18.64269,-4.399989,2844.219
26.6,-4.433323,-0.1291768,0.003447485,0,0,0,0,0,4.433323,17.13693,0.1291768,0,18.79806,-4.433323,2856.692
26.8,-4.466522,-0.1301547,0.003473583,0,0,0,0,0,4.466523,17.26526,0.1301547,0,18.95306,-4.466522,2873.86
27,-4.499856,-0.1311704,0.00350069,0,0,0,0,0,4.499856,17.39411,0.1311704,0,19.10892,-4.499856,2891.776
27.2,-4.533323,-0.1320001,0.003522832,0,0,0,0,0,4.533322,17.52347,0.1320001,0,19.26565,-4.533323,2905.51
27.4,-4.566789,-0.1331595,0.003553775,0,0,0,0,0,4.566789,17.65284,0.1331595,0,19.42262,-4.566789,2926.433
27.6,-4.599722,-0.1342482,0.00358283,0,0,0,0,0,4.599722,17.78014,0.1342482,0,19.57733,-4.599722,2945.798
27.8,-4.633322,-0.1352696,0.003610089,0,0,0,0,0,4.633322,17.91002,0.1352696,0,19.73542,-4.633322,2963.522
28,-4.666789,-0.136247,0.003636174,0,0,0,0,0,4.666789,18.03938,0.136247,0,19.89313,-4.666789,2980.231
28.2,-4.699855,-0.1371324,0.003659803,0,0,0,0,0,4.699855,18.1672,0.1371324,0,20.04921,-4.699855,2994.919
28.4,-4.733055,-0.1380918,0.003685408,0,0,0,0,0,4.733056,18.29554,0.1380918,0,20.20616,-4.733055,3011.143
28.6,-4.766388,-0.139078,0.003711728,0,0,0,0,0,4.766388,18.42439,0.139078,0,20.36398,-4.766388,3027.865
28.8,-4.799855,-0.1401377,0.003740009,0,0,0,0,0,4.799855,18.55375,0.1401377,0,20.52269,-4.799855,3046.097
29,-4.833188,-0.1412123,0.003768688,0,0,0,0,0,4.833188,18.6826,0.1412123,0,20.68101,-4.833188,3064.599
29.2,-4.866521,-0.1422258,0.003795736,0,0,0,0,0,4.866521,18.81145,0.1422258,0,20.83959,-4.866521,3081.703
29.4,-4.899722,-0.1429874,0.003816062,0,0,0,0,0,4.899722,18.93978,0.1429874,0,20.99779,-4.899722,3093.308
29.6,-4.933455,-0.1440001,0.00384309,0,0,0,0,0,4.933454,19.07018,0.1440001,0,21.15878,-4.933455,3110.206
29.8,-4.966655,-0.1451022,0.003872502,0,0,0,0,0,4.966655,19.19851,0.1451022,0,21.31748,-4.966655,3129.039
30,-4.999855,-0.1458541,0.003892571,0,0,0,0,0,4.999855,19.32685,0.1458541,0,21.47643,-4.999855,3140.259
30.2,-5.033054,-0.1476883,0.00394152,0,0,0,0,0,5.033054,19.45518,0.1476883,0,21.63564,-5.033054,3174.69
30.4,-5.066654,-0.1479178,0.003947645,0,0,0,0,0,5.066654,19.58506,0.1479178,0,21.79702,-5.066654,3174.497
30.6,-5.100121,-0.1486975,0.003968454,0,0,0,0,0,5.100121,19.71442,0.1486975,0,21.95802,-5.100121,3186.096
30.8,-5.133321,-0.1500415,0.004004325,0,0,0,0,0,5.133321,19.84276,0.1500415,0,22.11799,-5.133321,3209.756
31,-5.166654,-0.1507589,0.00402347,0,0,0,0,0,5.166654,19.9716,0.1507589,0,22.27887,-5.166654,3219.918
31.2,-5.199987,-0.151915,0.004054323,0,0,0,0,0,5.199987,20.10045,0.151915,0,22.44,-5.199987,3239.386
31.4,-5.23332,-0.1548581,0.004132869,0,0,0,0,0,5.23332,20.2293,0.1548581,0,22.60139,-5.23332,3296.818
31.6,-5.266254,-0.1542414,0.00411641,0,0,0,0,0,5.266254,20.35661,0.1542414,0,22.76111,-5.266254,3278.449
31.8,-5.29972,-0.154866,0.00413308,0,0,0,0,0,5.29972,20.48597,0.154866,0,22.92367,-5.29972,3286.378
32,-5.333187,-0.1558599,0.004159607,0,0,0,0,0,5.333187,20.61534,0.1558599,0,23.0865,-5.333187,3302.09
32.2,-5.36652,-0.1569947,0.004189892,0,0,0,0,0,5.36652,20.74418,0.1569947,0,23.24894,-5.36652,3320.733
32.4,-5.399853,-0.1572765,0.004197412,0,0,0,0,0,5.399853,20.87303,0.1572765,0,23.41164,-5.399853,3321.284
32.6,-5.433187,-0.1580826,0.004218924,0,0,0,0,0,5.433187,21.00188,0.1580826,0,23.57462,-5.433187,3332.871
32.8,-5.466653,-0.1595301,0.004257557,0,0,0,0,0,5.466653,21.13125,0.1595301,0,23.73851,-5.466653,3357.882
33,-5.50012,-0.160363,0.004279786,0,0,0,0,0,5.50012,21.26061,0.160363,0,23.90267,-5.50012,3369.877
33.2,-5.533187,-0.1614868,0.004309777,0,0,0,0,0,5.533187,21.38843,0.1614868,0,24.06513,-5.533187,3387.983
33.4,-5.56652,-0.1620986,0.004326106,0,0,0,0,0,5.56652,21.51728,0.1620986,0,24.22917,-5.56652,3395.245
33.6,-5.599853,-0.1628043,0.004344938,0,0,0,0,0,5.599853,21.64613,0.1628043,0,24.39348,-5.599853,3404.427
33.8,-5.633453,-0.1644586,0.004389088,0,0,0,0,0,5.633453,21.77601,0.1644586,0,24.55938,-5.633453,3433.32
34,-5.666653,-0.1650243,0.004404185,0,0,0,0,0,5.666652,21.90434,0.1650243,0,24.72357,-5.666653,3439.478
34.2,-5.699986,-0.166369,0.004440072,0,0,0,0,0,5.699986,22.03319,0.166369,0,24.8887,-5.699986,3461.783
34.4,-5.73332,-0.1665873,0.0044459,0,0,0,0,0,5.73332,22.16204,0.1665873,0,25.05409,-5.73332,3460.598
34.6,-5.766519,-0.1679575,0.004482469,0,0,0,0,0,5.76652,22.29037,0.1679575,0,25.2191,-5.766519,3483.31
34.8,-5.799719,-0.1685474,0.004498211,0,0,0,0,0,5.799719,22.4187,0.1685474,0,25.38438,-5.799719,3489.77
35,-5.833053,-0.1695685,0.004525461,0,0,0,0,0,5.833053,22.54756,0.1695685,0,25.55061,-5.833053,3505.081
35.2,-5.866252,-0.1703727,0.004546924,0,0,0,0,0,5.866252,22.67589,0.1703727,0,25.71644,-5.866252,3515.868
35.4,-5.899852,-0.1714791,0.004576453,0,0,0,0,0,5.899852,22.80577,0.1714791,0,25.88454,-5.899852,3532.758
35.6,-5.933186,-0.1721346,0.004593947,0,0,0,0,0,5.933186,22.93462,0.1721346,0,26.0516,-5.933186,3540.343
35.8,-5.966652,-0.1732021,0.004622435,0,0,0,0,0,5.966652,23.06398,0.1732021,0,26.2196,-5.966652,3556.317
36,-5.999985,-0.1741883,0.004648756,0,0,0,0,0,5.999986,23.19283,0.1741883,0,26.38722,-5.999985,3570.578
36.2,-6.033319,-0.175082,0.004672608,0,0,0,0,0,6.033319,23.32168,0.175082,0,26.55512,-6.033319,3582.877
36.4,-6.066518,-0.1760804,0.004699252,0,0,0,0,0,6.066518,23.45001,0.1760804,0,26.72262,-6.066518,3597.276
36.6,-6.099585,-0.176924,0.004721768,0,0,0,0,0,6.099585,23.57783,0.176924,0,26.88974,-6.099585,3608.477
36.8,-6.133185,-0.1780439,0.004751654,0,0,0,0,0,6.133185,23.70771,0.1780439,0,27.05983,-6.133185,3625.145
37,-6.166785,-0.1789465,0.004775744,0,0,0,0,0,6.166785,23.83759,0.1789465,0,27.23022,-6.166785,3637.322
37.2,-6.199852,-0.1799043,0.004801305,0,0,0,0,0,6.199852,23.96541,0.1799043,0,27.39818,-6.199852,3650.653
37.4,-6.233318,-0.1811344,0.004834136,0,0,0,0,0,6.233318,24.09477,0.1811344,0,27.56847,-6.233318,3669.361
37.6,-6.266785,-0.182228,0.00486332,0,0,0,0,0,6.266785,24.22414,0.182228,0,27.73904,-6.266785,3685.222
37.8,-6.299985,-0.1831935,0.004889088,0,0,0,0,0,6.299984,24.35247,0.1831935,0,27.90854,-6.299985,3698.474
38,-6.333051,-0.1840967,0.004913192,0,0,0,0,0,6.333051,24.48029,0.1840967,0,28.07765,-6.333051,3710.429
38.2,-6.366385,-0.1850826,0.004939504,0,0,0,0,0,6.366385,24.60914,0.1850826,0,28.24841,-6.366385,3723.935
38.4,-6.399851,-0.1861359,0.004967615,0,0,0,0,0,6.399851,24.7385,0.1861359,0,28.42015,-6.399851,3738.702
38.6,-6.433184,-0.1870525,0.004992078,0,0,0,0,0,6.433184,24.86735,0.1870525,0,28.5915,-6.433184,3750.68
38.8,-6.466651,-0.1876158,0.00500711,0,0,0,0,0,6.466651,24.99672,0.1876158,0,28.76383,-6.466651,3755.496
39,-6.499851,-0.1888074,0.005038912,0,0,0,0,0,6.499851,25.12505,0.1888074,0,28.93508,-6.499851,3772.883
39.2,-6.533317,-0.1897057,0.005062886,0,0,0,0,0,6.533317,25.25442,0.1897057,0,29.108,-6.533317,3784.283
39.4,-6.566651,-0.1907678,0.005091231,0,0,0,0,0,6.566651,25.38326,0.1907678,0,29.28054,-6.566651,3798.91
39.6,-6.599584,-0.1917191,0.005116621,0,0,0,0,0,6.599584,25.51057,0.1917191,0,29.45129,-6.599584,3811.342
39.8,-6.63305,-0.1927812,0.005144965,0,0,0,0,0,6.63305,25.63993,0.1927812,0,29.62511,-6.63305,3825.8
40,-6.666651,-0.1936267,0.00516753,0,0,0,0,0,6.66665,25.76981,0.1936267,0,29.79993,-6.666651,3835.867
40.2,-6.700117,-0.1944402,0.005189241,0,0,0,0,0,6.700117,25.89918,0.1944402,0,29.97435,-6.700117,3845.271
40.4,-6.733317,-0.1953925,0.005214654,0,0,0,0,0,6.733317,26.02751,0.1953924,0,30.14769,-6.733317,3857.41
40.6,-6.76665,-0.1961876,0.005235877,0,0,0,0,0,6.76665,26.15636,0.1961876,0,30.32203,-6.76665,3866.362
40.8,-6.800117,-0.1967708,0.00525144,0,0,0,0,0,6.800117,26.28572,0.1967708,0,30.49737,-6.800117,3871.061
41,-6.833183,-0.1978908,0.005281331,0,0,0,0,0,6.833183,26.41354,0.1978908,0,30.67092,-6.833183,3886.344
41.2,-6.866383,-0.198692,0.005302714,0,0,0,0,0,6.866384,26.54188,0.198692,0,30.84547,-6.866383,3895.274
41.4,-6.899716,-0.1996166,0.00532739,0,0,0,0,0,6.899716,26.67072,0.1996166,0,31.02103,-6.899716,3906.537
41.6,-6.933183,-0.2006724,0.005355568,0,0,0,0,0,6.933183,26.80009,0.2006724,0,31.1976,-6.933183,3920.271
41.8,-6.96665,-0.2010856,0.005366593,0,0,0,0,0,6.96665,26.92945,0.2010856,0,31.37448,-6.96665,3921.399
42,-6.999849,-0.2021221,0.005394255,0,0,0,0,0,6.999849,27.05779,0.202122,0,31.55027,-6.999849,3934.689
42.2,-7.033183,-0.2029553,0.005416492,0,0,0,0,0,7.033183,27.18664,0.2029553,0,31.72707,-7.033183,3943.931
42.4,-7.066649,-0.2037396,0.005437424,0,0,0,0,0,7.066649,27.316,0.2037396,0,31.90489,-7.066649,3952.137
42.6,-7.100116,-0.2049398,0.005469455,0,0,0,0,0,7.100116,27.44537,0.2049398,0,32.08303,-7.100116,3968.343
42.8,-7.133183,-0.205552,0.005485795,0,0,0,0,0,7.133183,27.57318,0.205552,0,32.25936,-7.133183,3973.187
43,-7.166382,-0.2066925,0.005516232,0,0,0,0,0,7.166382,27.70152,0.2066925,0,32.4367,-7.166382,3988.152
43.2,-7.199849,-0.2073825,0.005534646,0,0,0,0,0,7.199849,27.83088,0.2073825,0,32.6158,-7.199849,3994.305
43.4,-7.233449,-0.2083781,0.005561216,0,0,0,0,0,7.233449,27.96076,0.2083781,0,32.79592,-7.233449,4006.258
43.6,-7.266515,-0.2091762,0.005582516,0,0,0,0,0,7.266515,28.08858,0.2091762,0,32.97351,-7.266515,4014.467
43.8,-7.299982,-0.2098974,0.005601765,0,0,0,0,0,7.299982,28.21794,0.2098974,0,33.15357,-7.299982,4021.062
44,-7.333449,-0.2107923,0.005625648,0,0,0,0,0,7.333449,28.34731,0.2107923,0,33.33395,-7.333449,4030.928
44.2,-7.366515,-0.2116696,0.005649062,0,0,0,0,0,7.366515,28.47513,0.2116696,0,33.51249,-7.366515,4040.484
44.4,-7.399715,-0.2124096,0.00566881,0,0,0,0,0,7.399715,28.60346,0.2124096,0,33.69208,-7.399715,4047.334
44.6,-7.433048,-0.2130578,0.00568611,0,0,0,0,0,7.433048,28.73231,0.2130578,0,33.87271,-7.433048,4052.359
44.8,-7.466382,-0.2140828,0.005713466,0,0,0,0,0,7.466382,28.86116,0.2140828,0,34.05367,-7.466382,4064.493
45,-7.499715,-0.2147881,0.005732289,0,0,0,0,0,7.499715,28.99001,0.2147881,0,34.23496,-7.499715,4070.498
45.2,-7.533315,-0.2155783,0.005753375,0,0,0,0,0,7.533315,29.11989,0.2155783,0,34.41803,-7.533315,4077.999
45.4,-7.566515,-0.2164544,0.005776759,0,0,0,0,0,7.566515,29.24822,0.2164544,0,34.59925,-7.566515,4087.16
45.6,-7.599982,-0.2174822,0.005804188,0,0,0,0,0,7.599981,29.37759,0.2174822,0,34.78226,-7.599982,4099.057
45.8,-7.633314,-0.2179619,0.00581699,0,0,0,0,0,7.633315,29.50643,0.2179619,0,34.96487,-7.633314,4100.604
46,-7.666515,-0.2184611,0.005830314,0,0,0,0,0,7.666515,29.63477,0.2184611,0,35.14709,-7.666515,4102.514
46.2,-7.699715,-0.2194726,0.005857307,0,0,0,0,0,7.699715,29.7631,0.2194726,0,35.32964,-7.699715,4113.991
46.4,-7.733314,-0.2201634,0.005875745,0,0,0,0,0,7.733315,29.89298,0.2201634,0,35.51473,-7.733314,4119.31
46.6,-7.766648,-0.2208564,0.00589424,0,0,0,0,0,7.766648,30.02183,0.2208564,0,35.69869,-7.766648,4124.681
46.8,-7.799981,-0.2220469,0.005926011,0,0,0,0,0,7.799981,30.15068,0.2220469,0,35.88298,-7.799981,4139.279
47,-7.833314,-0.22264,0.005941841,0,0,0,0,0,7.833314,30.27953,0.2226401,0,36.06762,-7.833314,4142.68
47.2,-7.866648,-0.2234746,0.005964115,0,0,0,0,0,7.866648,30.40838,0.2234746,0,36.2526,-7.866648,4150.524
47.4,-7.899848,-0.2246318,0.005994997,0,0,0,0,0,7.899848,30.53671,0.2246318,0,36.43718,-7.899848,4164.322
47.6,-7.932914,-0.2252648,0.006011892,0,0,0,0,0,7.932914,30.66453,0.2252648,0,36.62136,-7.932914,4168.373
47.8,-7.966381,-0.2264765,0.006044228,0,0,0,0,0,7.966381,30.79389,0.2264765,0,36.80811,-7.966381,4182.975
48,-7.999714,-0.2270872,0.006060527,0,0,0,0,0,7.999713,30.92274,0.2270872,0,36.99446,-7.999714,4186.446
48.2,-8.033314,-0.2278914,0.006081991,0,0,0,0,0,8.033314,31.05262,0.2278914,0,37.18266,-8.033314,4193.373
48.4,-8.066647,-0.2287435,0.006104731,0,0,0,0,0,8.066647,31.18147,0.2287435,0,37.36972,-8.066647,4201.186
48.6,-8.099981,-0.2291295,0.006115033,0,0,0,0,0,8.09998,31.31032,0.2291295,0,37.55713,-8.099981,4200.396
48.8,-8.133314,-0.230118,0.006141413,0,0,0,0,0,8.133313,31.43917,0.230118,0,37.74488,-8.133314,4210.604
49,-8.166647,-0.2308415,0.006160723,0,0,0,0,0,8.166647,31.56802,0.2308415,0,37.93299,-8.166647,4215.904
49.2,-8.199846,-0.2316416,0.006182076,0,0,0,0,0,8.199846,31.69635,0.2316416,0,38.1207,-8.199846,4222.583
49.4,-8.233047,-0.2328869,0.006215312,0,0,0,0,0,8.233047,31.82469,0.2328869,0,38.30877,-8.233047,4237.308
49.6,-8.266646,-0.2333761,0.006228367,0,0,0,0,0,8.266646,31.95457,0.2333761,0,38.49946,-8.266646,4238.119
49.8,-8.29998,-0.2342475,0.006251622,0,0,0,0,0,8.29998,32.08342,0.2342475,0,38.689,-8.29998,4245.888
50,-8.333313,-0.2349627,0.00627071,0,0,0,0,0,8.333313,32.21227,0.2349627,0,38.87889,-8.333313,4250.772
50.2,-8.366646,-0.2356338,0.006288621,0,0,0,0,0,8.366646,32.34111,0.2356338,0,39.06915,-8.366646,4254.811
50.4,-8.399979,-0.2364391,0.006310112,0,0,0,0,0,8.39998,32.46996,0.2364391,0,39.25977,-8.399979,4261.221
50.6,-8.43318,-0.236829,0.006320517,0,0,0,0,0,8.43318,32.5983,0.236829,0,39.44999,-8.43318,4260.136
50.8,-8.46638,-0.2378571,0.006347956,0,0,0,0,0,8.46638,32.72663,0.2378571,0,39.64057,-8.46638,4270.484
51,-8.49958,-0.2384258,0.006363132,0,0,0,0,0,8.499579,32.85497,0.2384258,0,39.83152,-8.49958,4272.527
51.2,-8.533046,-0.2391842,0.006383374,0,0,0,0,0,8.533046,32.98433,0.2391842,0,40.02437,-8.533046,4277.861
51.4,-8.56638,-0.2402599,0.006412082,0,0,0,0,0,8.56638,33.11318,0.2402599,0,40.21682,-8.56638,4288.838
51.6,-8.599846,-0.2408462,0.006427728,0,0,0,0,0,8.599846,33.24254,0.2408462,0,40.41042,-8.599846,4290.988
51.8,-8.633313,-0.241431,0.006443337,0,0,0,0,0,8.633313,33.37191,0.241431,0,40.60439,-8.633313,4293.072
52,-8.666646,-0.2424362,0.006470163,0,0,0,0,0,8.666646,33.50076,0.2424362,0,40.79796,-8.666646,4302.609
52.2,-8.700112,-0.2432451,0.006491751,0,0,0,0,0,8.700112,33.63012,0.2432451,0,40.99268,-8.700112,4308.568
52.4,-8.733178,-0.2438256,0.006507243,0,0,0,0,0,8.733178,33.75794,0.2438256,0,41.18545,-8.733178,4310.532
52.6,-8.766379,-0.245186,0.006543549,0,0,0,0,0,8.766379,33.88628,0.245186,0,41.37938,-8.766379,4326.184
52.8,-8.799845,-0.2457597,0.00655886,0,0,0,0,0,8.799846,34.01564,0.2457597,0,41.57524,-8.799845,4327.822
53,-8.833311,-0.2465423,0.006579748,0,0,0,0,0,8.833311,34.145,0.2465423,0,41.77148,-8.833311,4333.093
53.2,-8.866378,-0.2473554,0.006601448,0,0,0,0,0,8.866378,34.27282,0.2473554,0,41.96576,-8.866378,4338.946
53.4,-8.899978,-0.2480993,0.006621301,0,0,0,0,0,8.899979,34.4027,0.2480993,0,42.16356,-8.899978,4343.395
53.6,-8.933311,-0.2489826,0.006644873,0,0,0,0,0,8.933311,34.53155,0.2489826,0,42.36018,-8.933311,4350.296
53.8,-8.966645,-0.2499983,0.006671982,0,0,0,0,0,8.966645,34.6604,0.2499983,0,42.55719,-8.966645,4359.446
54,-8.999712,-0.2507212,0.006691274,0,0,0,0,0,8.999712,34.78822,0.2507212,0,42.753,-8.999712,4363.499
54.2,-9.033045,-0.2514699,0.006711256,0,0,0,0,0,9.033045,34.91706,0.2514699,0,42.95078,-9.033045,4367.882
54.4,-9.066511,-0.252178,0.006730154,0,0,0,0,0,9.066511,35.04643,0.252178,0,43.14974,-9.066511,4371.475
54.6,-9.099845,-0.2528636,0.006748452,0,0,0,0,0,9.099846,35.17528,0.2528636,0,43.34832,-9.099845,4374.665
54.8,-9.133311,-0.253736,0.006771733,0,0,0,0,0,9.133311,35.30464,0.253736,0,43.54807,-9.133311,4380.997
55,-9.166511,-0.2544651,0.006791192,0,0,0,0,0,9.166511,35.43298,0.2544651,0,43.74664,-9.166511,4384.871
55.2,-9.199978,-0.2554015,0.006816183,0,0,0,0,0,9.199978,35.56234,0.2554015,0,43.9472,-9.199978,4392.189
55.4,-9.233311,-0.2561041,0.006834933,0,0,0,0,0,9.233311,35.69119,0.2561041,0,44.14735,-9.233311,4395.464
55.6,-9.266644,-0.257044,0.006860018,0,0,0,0,0,9.266644,35.82004,0.257044,0,44.34791,-9.266644,4402.757
55.8,-9.29971,-0.2576768,0.006876906,0,0,0,0,0,9.29971,35.94786,0.2576768,0,44.54727,-9.29971,4404.806
56,-9.333311,-0.2584126,0.006896544,0,0,0,0,0,9.333311,36.07774,0.2584127,0,44.75025,-9.333311,4408.427
56.2,-9.366778,-0.2590366,0.006913195,0,0,0,0,0,9.366777,36.2071,0.2590365,0,44.95283,-9.366778,4410.127
56.4,-9.399843,-0.2598694,0.006935424,0,0,0,0,0,9.399843,36.33492,0.2598695,0,45.15339,-9.399843,4415.443
56.6,-9.43331,-0.2604693,0.006951432,0,0,0,0,0,9.43331,36.46428,0.2604693,0,45.35679,-9.43331,4416.642
56.8,-9.466777,-0.2611778,0.006970341,0,0,0,0,0,9.466777,36.59365,0.2611778,0,45.56061,-9.466777,4419.639
57,-9.49971,-0.2622179,0.006998099,0,0,0,0,0,9.49971,36.72095,0.2622179,0,45.76159,-9.49971,4428.33
57.2,-9.533044,-0.2628224,0.007014233,0,0,0,0,0,9.533044,36.8498,0.2628224,0,45.96542,-9.533044,4429.502
57.4,-9.566244,-0.263643,0.007036133,0,0,0,0,0,9.566244,36.97813,0.263643,0,46.16885,-9.566244,4434.302
57.6,-9.599843,-0.2641706,0.007050212,0,0,0,0,0,9.599843,37.10801,0.2641706,0,46.37514,-9.599843,4434.018
57.8,-9.63331,-0.2648541,0.007068454,0,0,0,0,0,9.63331,37.23738,0.2648541,0,46.58105,-9.63331,4436.347
58,-9.66651,-0.2653892,0.007082734,0,0,0,0,0,9.66651,37.36571,0.2653892,0,46.78573,-9.66651,4436.22
58.2,-9.699976,-0.2661073,0.0071019,0,0,0,0,0,9.699976,37.49508,0.2661073,0,46.99248,-9.699976,4439.037
58.4,-9.733177,-0.2668753,0.007122397,0,0,0,0,0,9.733177,37.62341,0.2668753,0,47.19802,-9.733177,4442.708
58.6,-9.766643,-0.2675128,0.00713941,0,0,0,0,0,9.766642,37.75277,0.2675128,0,47.40562,-9.766643,4444.085
58.8,-9.799976,-0.2681704,0.007156961,0,0,0,0,0,9.799976,37.88162,0.2681704,0,47.61283,-9.799976,4445.788
59,-9.832909,-0.2687389,0.007172131,0,0,0,0,0,9.83291,38.00893,0.2687389,0,47.81798,-9.832909,4446.081
59.2,-9.866376,-0.2694967,0.007192357,0,0,0,0,0,9.866377,38.13829,0.2694967,0,48.02688,-9.866376,4449.315
59.4,-9.899976,-0.2700955,0.007208338,0,0,0,0,0,9.899976,38.26817,0.2700955,0,48.23705,-9.899976,4449.839
59.6,-9.93331,-0.2709258,0.007230496,0,0,0,0,0,9.93331,38.39702,0.2709258,0,48.446,-9.93331,4454.201
59.8,-9.966643,-0.2714452,0.007244358,0,0,0,0,0,9.966642,38.52587,0.2714452,0,48.65538,-9.966643,4453.406
60,-10.00011,-0.2722537,0.007265936,0,0,0,0,0,10.00011,38.65523,0.2722537,0,48.86603,-10.00011,4457.271
60.2,-10.03331,-0.2730892,0.007288232,0,0,0,0,0,10.03331,38.78357,0.2730891,0,49.07545,-10.03331,4461.596
60.4,-10.06624,-0.2737024,0.0073046,0,0,0,0,0,10.06624,38.91087,0.2737024,0,49.28362,-10.06624,4462.316
60.6,-10.09971,-0.2745582,0.007327438,0,0,0,0,0,10.09971,39.04024,0.2745582,0,49.49561,-10.09971,4466.789
60.8,-10.13318,-0.2752828,0.007346778,0,0,0,0,0,10.13317,39.1696,0.2752829,0,49.70805,-10.13318,4469.075
61,-10.16651,-0.2760764,0.007367956,0,0,0,0,0,10.16651,39.29845,0.2760763,0,49.9201,-10.16651,4472.463
61.2,-10.19984,-0.2769105,0.007390216,0,0,0,0,0,10.19984,39.4273,0.2769105,0,50.13259,-10.19984,4476.454
61.4,-10.23331,-0.2776132,0.00740897,0,0,0,0,0,10.23331,39.55666,0.2776132,0,50.34638,-10.23331,4478.229
61.6,-10.26664,-0.2784726,0.007431906,0,0,0,0,0,10.26664,39.68551,0.2784726,0,50.55979,-10.26664,4482.516
61.8,-10.29998,-0.2792638,0.007453022,0,0,0,0,0,10.29998,39.81436,0.2792638,0,50.77364,-10.29998,4485.649
62,-10.33317,-0.2800871,0.007474993,0,0,0,0,0,10.33317,39.94269,0.2800871,0,50.98709,-10.33317,4489.28
62.2,-10.36637,-0.2809795,0.00749881,0,0,0,0,0,10.36637,40.07103,0.2809795,0,51.20101,-10.36637,4493.96
62.4,-10.39984,-0.2817673,0.007519836,0,0,0,0,0,10.39984,40.20039,0.2817673,0,51.41711,-10.39984,4496.832
62.6,-10.43357,-0.282662,0.007543714,0,0,0,0,0,10.43357,40.33078,0.282662,0,51.6354,-10.43357,4501.275
62.8,-10.46664,-0.283433,0.007564289,0,0,0,0,0,10.46664,40.4586,0.283433,0,51.84984,-10.46664,4503.883
63,-10.49997,-0.2842436,0.007585922,0,0,0,0,0,10.49997,40.58746,0.2842436,0,52.06648,-10.49997,4506.989
63.2,-10.53331,-0.2852065,0.00761162,0,0,0,0,0,10.53331,40.7163,0.2852065,0,52.28358,-10.53331,4512.45
63.4,-10.56651,-0.2859577,0.00763167,0,0,0,0,0,10.56651,40.84464,0.2859577,0,52.50029,-10.56651,4514.542
63.6,-10.59957,-0.286634,0.007649719,0,0,0,0,0,10.59957,40.97245,0.286634,0,52.7166,-10.59957,4515.441
63.8,-10.63317,-0.2875081,0.007673047,0,0,0,0,0,10.63317,41.10234,0.2875081,0,52.93688,-10.63317,4519.246
64,-10.66637,-0.2884368,0.007697832,0,0,0,0,0,10.66637,41.23067,0.2884368,0,53.15501,-10.66637,4523.964
64.2,-10.69984,-0.2892404,0.007719277,0,0,0,0,0,10.69984,41.36003,0.2892404,0,53.37537,-10.69984,4526.582
64.4,-10.73304,-0.2899266,0.007737591,0,0,0,0,0,10.73304,41.48837,0.2899266,0,53.59446,-10.73304,4527.391
64.60001,-10.76664,-0.2908546,0.007762359,0,0,0,0,0,10.76664,41.61825,0.2908546,0,53.81668,-10.76664,4531.802
64.8,-10.80011,-0.2918986,0.007790221,0,0,0,0,0,10.80011,41.74761,0.2918986,0,54.03851,-10.80011,4537.99
65,-10.83344,-0.2927468,0.007812858,0,0,0,0,0,10.83344,41.87646,0.2927468,0,54.25995,-10.83344,4541.11
65.2,-10.86664,-0.2932276,0.007825688,0,0,0,0,0,10.86664,42.0048,0.2932276,0,54.48098,-10.86664,4538.524
65.4,-10.89971,-0.2942521,0.007853032,0,0,0,0,0,10.89971,42.13261,0.2942521,0,54.70162,-10.89971,4544.344
65.60001,-10.93317,-0.295215,0.007878728,0,0,0,0,0,10.93317,42.26198,0.295215,0,54.92543,-10.93317,4549.022
65.8,-10.96677,-0.2959862,0.007899312,0,0,0,0,0,10.96677,42.39186,0.2959862,0,55.15062,-10.96677,4550.647
66,-10.99984,-0.2969289,0.007924469,0,0,0,0,0,10.99984,42.51968,0.2969289,0,55.37275,-10.99984,4555.01
66.20001,-11.03331,-0.2979001,0.00795039,0,0,0,0,0,11.03331,42.64904,0.2979001,0,55.59806,-11.03331,4559.625
66.4,-11.06664,-0.2987953,0.007974282,0,0,0,0,0,11.06664,42.77789,0.2987953,0,55.82298,-11.06664,4563.052
66.60001,-11.09997,-0.2999581,0.008005314,0,0,0,0,0,11.09997,42.90674,0.2999581,0,56.04841,-11.09997,4570.495
66.8,-11.13304,-0.3008303,0.008028591,0,0,0,0,0,11.13304,43.03455,0.3008303,0,56.27253,-11.13304,4573.523
67,-11.16624,-0.3016878,0.008051476,0,0,0,0,0,11.16624,43.16289,0.3016877,0,56.49807,-11.16624,4576.226
67.20001,-11.19997,-0.3028192,0.008081671,0,0,0,0,0,11.19997,43.29329,0.3028192,0,56.72775,-11.19997,4582.85
67.4,-11.23304,-0.3035779,0.008101919,0,0,0,0,0,11.23304,43.4211,0.3035779,0,56.9534,-11.23304,4583.977
67.60001,-11.26664,-0.3047441,0.008133043,0,0,0,0,0,11.26664,43.55098,0.3047441,0,57.18323,-11.26664,4591.022
67.8,-11.29997,-0.3056618,0.008157536,0,0,0,0,0,11.29997,43.67983,0.3056619,0,57.41175,-11.29997,4594.338
68,-11.33331,-0.3066355,0.008183519,0,0,0,0,0,11.3333,43.80868,0.3066354,0,57.64078,-11.33331,4598.428
68.20001,-11.36664,-0.3077107,0.008212216,0,0,0,0,0,11.36664,43.93753,0.3077107,0,57.87036,-11.36664,4603.971
68.4,-11.39984,-0.308572,0.008235201,0,0,0,0,0,11.39984,44.06586,0.308572,0,58.09953,-11.39984,4606.289
68.60001,-11.43304,-0.3095412,0.008261067,0,0,0,0,0,11.43304,44.1942,0.3095412,0,58.32923,-11.43304,4610.155
68.8,-11.46651,-0.3105575,0.008288192,0,0,0,0,0,11.46651,44.32356,0.3105575,0,58.56131,-11.46651,4614.57
69,-11.49997,-0.3115118,0.00831366,0,0,0,0,0,11.49997,44.45293,0.3115118,0,58.79394,-11.49997,4617.995
69.20001,-11.53331,-0.3121821,0.008331548,0,0,0,0,0,11.53331,44.58178,0.3121821,0,59.02617,-11.53331,4617.196
69.4,-11.56664,-0.3130591,0.008354956,0,0,0,0,0,11.56664,44.71062,0.3130592,0,59.25894,-11.56664,4619.403
69.60001,-11.60024,-0.3142512,0.008386768,0,0,0,0,0,11.60024,44.8405,0.3142512,0,59.49413,-11.60024,4626.099
69.8,-11.6333,-0.315032,0.008407608,0,0,0,0,0,11.6333,44.96832,0.315032,0,59.72612,-11.6333,4626.848
70,-11.66624,-0.3159118,0.008431086,0,0,0,0,0,11.66624,45.09563,0.3159118,0,59.95772,-11.66624,4629.035
70.20001,-11.6997,-0.3170998,0.008462792,0,0,0,0,0,11.6997,45.22499,0.3170998,0,60.19361,-11.6997,4635.495
70.4,-11.73304,-0.3181357,0.008490439,0,0,0,0,0,11.73304,45.35384,0.3181356,0,60.42912,-11.73304,4639.699
70.60001,-11.76637,-0.3191973,0.008518771,0,0,0,0,0,11.76637,45.48269,0.3191973,0,60.66519,-11.76637,4644.205
70.8,-11.79984,-0.3202849,0.008547799,0,0,0,0,0,11.79984,45.61205,0.3202849,0,60.90276,-11.79984,4648.972
71,-11.83317,-0.3214494,0.008578877,0,0,0,0,0,11.83317,45.7409,0.3214494,0,61.13995,-11.83317,4654.821
71.20001,-11.86664,-0.3225349,0.008607845,0,0,0,0,0,11.86664,45.87027,0.3225349,0,61.37865,-11.86664,4659.404
71.4,-11.89997,-0.3234784,0.008633026,0,0,0,0,0,11.89997,45.99911,0.3234784,0,61.61698,-11.89997,4661.91
71.60001,-11.93317,-0.324514,0.008660663,0,0,0,0,0,11.93317,46.12745,0.324514,0,61.85491,-11.93317,4665.72
71.8,-11.96637,-0.325398,0.008684256,0,0,0,0,0,11.96637,46.25578,0.325398,0,62.09341,-11.96637,4667.286
72,-11.99984,-0.3266886,0.0087187,0,0,0,0,0,11.99984,46.38515,0.3266886,0,62.3344,-11.99984,4674.518
72.20001,-12.03344,-0.3277616,0.008747336,0,0,0,0,0,12.03344,46.51503,0.3277616,0,62.57694,-12.03344,4678.511
72.4,-12.06664,-0.3279988,0.008753666,0,0,0,0,0,12.06664,46.64336,0.3279988,0,62.81718,-12.06664,4670.662
72.60001,-12.09997,-0.3294979,0.008793675,0,0,0,0,0,12.09997,46.77221,0.3294979,0,63.05895,-12.09997,4680.679
72.8,-12.1333,-0.3304688,0.008819586,0,0,0,0,0,12.1333,46.90106,0.3304688,0,63.30132,-12.1333,4683.107
73,-12.1665,-0.3314969,0.008847023,0,0,0,0,0,12.1665,47.02939,0.3314969,0,63.5433,-12.1665,4686.322
73.20001,-12.1997,-0.3324239,0.008871764,0,0,0,0,0,12.1997,47.15773,0.3324239,0,63.78587,-12.1997,4688.042
73.4,-12.23304,-0.3324968,0.00887371,0,0,0,0,0,12.23304,47.28658,0.3324968,0,64.03,-12.23304,4677.637
73.60001,-12.26637,-0.3340308,0.008914649,0,0,0,0,0,12.26637,47.41542,0.3340308,0,64.27474,-12.26637,4687.73
73.8,-12.29984,-0.3357567,0.00896071,0,0,0,0,0,12.29984,47.54479,0.3357567,0,64.52105,-12.29984,4700.359
74,-12.33317,-0.3370917,0.00899634,0,0,0,0,0,12.33317,47.67364,0.3370917,0,64.76698,-12.33317,4707.457
74.20001,-12.36664,-0.3390218,0.00904785,0,0,0,0,0,12.36664,47.803,0.3390218,0,65.01452,-12.36664,4722.706
74.4,-12.39997,-0.340353,0.009083376,0,0,0,0,0,12.39997,47.93185,0.340353,0,65.26168,-12.39997,4729.546
74.60001,-12.43344,-0.3415274,0.009114719,0,0,0,0,0,12.43344,48.06122,0.3415274,0,65.51044,-12.43344,4734.074
74.8,-12.4665,-0.3429307,0.009152171,0,0,0,0,0,12.4665,48.18903,0.3429307,0,65.75684,-12.4665,4741.828
75,-12.49984,-0.3446492,0.009198035,0,0,0,0,0,12.49984,48.31788,0.3446492,0,66.00584,-12.49984,4753.739
75.20001,-12.53344,-0.3458811,0.009230913,0,0,0,0,0,12.53344,48.44777,0.3458811,0,66.25746,-12.53344,4758.742
75.4,-12.56677,-0.3474839,0.009273686,0,0,0,0,0,12.56677,48.57661,0.3474839,0,66.50771,-12.56677,4768.844
75.60001,-12.6001,-0.3493042,0.009322268,0,0,0,0,0,12.6001,48.70546,0.3493042,0,66.75859,-12.6001,4781.815
75.8,-12.6333,-0.3502686,0.009348007,0,0,0,0,0,12.6333,48.83379,0.3502687,0,67.00909,-12.6333,4783.021
76,-12.66677,-0.3518901,0.009391282,0,0,0,0,0,12.66677,48.96316,0.3518901,0,67.26224,-12.66677,4793.013
76.20001,-12.69984,-0.3535678,0.009436054,0,0,0,0,0,12.69984,49.09098,0.3535678,0,67.513,-12.69984,4803.803
76.4,-12.73304,-0.3544209,0.009458823,0,0,0,0,0,12.73304,49.21931,0.3544209,0,67.7654,-12.73304,4803.256
76.60001,-12.76637,-0.3558084,0.009495853,0,0,0,0,0,12.76637,49.34816,0.3558084,0,68.01946,-12.76637,4809.824
76.8,-12.7997,-0.3574104,0.009538606,0,0,0,0,0,12.7997,49.47701,0.3574104,0,68.27416,-12.7997,4819.189
77,-12.83317,-0.3586463,0.00957159,0,0,0,0,0,12.83317,49.60637,0.3586463,0,68.53055,-12.83317,4823.471
77.20001,-12.8665,-0.3597571,0.009601235,0,0,0,0,0,12.8665,49.73522,0.3597571,0,68.78656,-12.8665,4826.04
77.4,-12.89997,-0.3608465,0.00963031,0,0,0,0,0,12.89997,49.86459,0.3608465,0,69.04426,-12.89997,4828.196
77.60001,-12.9333,-0.362679,0.009679216,0,0,0,0,0,12.9333,49.99343,0.362679,0,69.30159,-12.9333,4840.243
77.8,-12.96677,-0.3642387,0.009720842,0,0,0,0,0,12.96677,50.1228,0.3642387,0,69.56062,-12.96677,4848.484
78,-12.99983,-0.3656562,0.009758671,0,0,0,0,0,12.99983,50.25062,0.3656562,0,69.81721,-12.99983,4854.879
78.20001,-13.03304,-0.3667612,0.009788162,0,0,0,0,0,13.03304,50.37895,0.3667612,0,70.07551,-13.03304,4856.988
78.4,-13.0665,-0.3682315,0.009827402,0,0,0,0,0,13.0665,50.50832,0.3682315,0,70.33655,-13.0665,4863.747
78.60001,-13.1001,-0.3698052,0.009869399,0,0,0,0,0,13.1001,50.6382,0.3698052,0,70.59933,-13.1001,4871.714
78.8,-13.1333,-0.371804,0.009922744,0,0,0,0,0,13.1333,50.76653,0.371804,0,70.85965,-13.1333,4885.311
79,-13.1665,-0.3733039,0.009962773,0,0,0,0,0,13.1665,50.89486,0.3733039,0,71.12065,-13.1665,4892.233
79.20001,-13.19997,-0.3755391,0.01002243,0,0,0,0,0,13.19997,51.02423,0.3755391,0,71.38444,-13.19997,4908.561
79.4,-13.23303,-0.3769024,0.01005881,0,0,0,0,0,13.23303,51.15205,0.3769024,0,71.64577,-13.23303,4913.524
79.60001,-13.2665,-0.378463,0.01010046,0,0,0,0,0,13.2665,51.28141,0.378463,0,71.91095,-13.2665,4920.803
79.8,-13.2997,-0.3803114,0.01014979,0,0,0,0,0,13.2997,51.40974,0.3803114,0,72.17472,-13.2997,4931.81
80,-13.33303,-0.3822645,0.01020192,0,0,0,0,0,13.33303,51.53859,0.3822646,0,72.44024,-13.33303,4943.993
80.20001,-13.3665,-0.383904,0.01024567,0,0,0,0,0,13.3665,51.66796,0.383904,0,72.70755,-13.3665,4951.943
80.4,-13.39997,-0.3854443,0.01028678,0,0,0,0,0,13.39997,51.79732,0.3854443,0,72.97556,-13.39997,4958.503
80.60001,-13.4333,-0.3874898,0.01034137,0,0,0,0,0,13.4333,51.92617,0.3874898,0,73.24323,-13.4333,4971.492
80.8,-13.46663,-0.3889237,0.01037964,0,0,0,0,0,13.46663,52.05502,0.3889237,0,73.51161,-13.46663,4976.515
81.00001,-13.49997,-0.3905873,0.01042404,0,0,0,0,0,13.49997,52.18387,0.3905873,0,73.78071,-13.49997,4984.371
81.20001,-13.53317,-0.3925518,0.01047647,0,0,0,0,0,13.53317,52.3122,0.3925518,0,74.04946,-13.53317,4995.996
81.4,-13.56637,-0.3940851,0.01051738,0,0,0,0,0,13.56637,52.44054,0.3940851,0,74.31894,-13.56637,5002.011
81.60001,-13.59997,-0.3960023,0.01056855,0,0,0,0,0,13.59997,52.57042,0.3960023,0,74.5924,-13.59997,5012.62
81.8,-13.63343,-0.3982925,0.01062967,0,0,0,0,0,13.63343,52.69978,0.3982925,0,74.86553,-13.63343,5027.858
82.00001,-13.66637,-0.4004012,0.01068595,0,0,0,0,0,13.66637,52.82708,0.4004012,0,75.13502,-13.66637,5040.874
82.20001,-13.69997,-0.4022183,0.01073445,0,0,0,0,0,13.69997,52.95696,0.4022183,0,75.41073,-13.69997,5049.809
82.4,-13.73343,-0.4041463,0.0107859,0,0,0,0,0,13.73343,53.08633,0.4041463,0,75.68611,-13.73343,5060.061
82.60001,-13.7665,-0.4058891,0.01083241,0,0,0,0,0,13.7665,53.21415,0.4058891,0,75.95893,-13.7665,5068.036
82.8,-13.7997,-0.4073691,0.01087191,0,0,0,0,0,13.7997,53.34248,0.4073691,0,76.23361,-13.7997,5072.564
83.00001,-13.83303,-0.4091844,0.01092036,0,0,0,0,0,13.83303,53.47133,0.4091844,0,76.51015,-13.83303,5081.097
83.20001,-13.86637,-0.4112192,0.01097466,0,0,0,0,0,13.86637,53.60018,0.4112192,0,76.78745,-13.86637,5092.224
83.4,-13.89983,-0.4127285,0.01101494,0,0,0,0,0,13.89983,53.72955,0.4127285,0,77.06666,-13.89983,5096.663
83.60001,-13.9333,-0.4149156,0.01107331,0,0,0,0,0,13.9333,53.85891,0.4149156,0,77.34662,-13.9333,5109.347
83.8,-13.9665,-0.417048,0.01113022,0,0,0,0,0,13.9665,53.98724,0.417048,0,77.62514,-13.9665,5121.322
84.00001,-13.99997,-0.4189914,0.01118209,0,0,0,0,0,13.99997,54.11661,0.4189914,0,77.90669,-13.99997,5130.721
84.20001,-14.03343,-0.421205,0.01124116,0,0,0,0,0,14.03343,54.24597,0.421205,0,78.18903,-14.03343,5143.286
84.4,-14.0665,-0.4231726,0.01129368,0,0,0,0,0,14.0665,54.37379,0.4231727,0,78.46878,-14.0665,5152.877
84.60001,-14.0997,-0.4250591,0.01134402,0,0,0,0,0,14.0997,54.50212,0.4250591,0,78.75045,-14.0997,5161.29
84.8,-14.13317,-0.4271537,0.01139992,0,0,0,0,0,14.13317,54.63148,0.4271537,0,79.03519,-14.13317,5171.976
85.00001,-14.16677,-0.4293283,0.01145796,0,0,0,0,0,14.16677,54.76137,0.4293283,0,79.32188,-14.16677,5183.425
85.20001,-14.19983,-0.4309567,0.01150142,0,0,0,0,0,14.19983,54.88918,0.4309568,0,79.60481,-14.19983,5188.384
85.4,-14.2333,-0.4332925,0.01156376,0,0,0,0,0,14.2333,55.01855,0.4332925,0,79.89199,-14.2333,5201.546
85.60001,-14.26676,-0.4356251,0.01162601,0,0,0,0,0,14.26676,55.14791,0.4356251,0,80.18,-14.26676,5214.507
85.8,-14.29983,-0.4377333,0.01168227,0,0,0,0,0,14.29983,55.27573,0.4377333,0,80.46539,-14.29983,5224.811
86.00001,-14.33303,-0.4398921,0.01173989,0,0,0,0,0,14.33303,55.40407,0.4398921,0,80.75275,-14.33303,5235.512
86.20001,-14.36637,-0.4421887,0.01180118,0,0,0,0,0,14.36637,55.53291,0.4421887,0,81.04209,-14.36637,5247.64
86.4,-14.39983,-0.4444648,0.01186192,0,0,0,0,0,14.39983,55.66228,0.4444648,0,81.33343,-14.39983,5259.307
86.60001,-14.43317,-0.4465954,0.01191879,0,0,0,0,0,14.43317,55.79113,0.4465954,0,81.62447,-14.43317,5269.161
86.8,-14.4665,-0.4490019,0.01198301,0,0,0,0,0,14.4665,55.91998,0.4490019,0,81.91635,-14.4665,5282.114
87.00001,-14.49983,-0.4516671,0.01205414,0,0,0,0,0,14.49983,56.04882,0.4516671,0,82.20908,-14.49983,5297.936
87.20001,-14.5333,-0.4539077,0.01211394,0,0,0,0,0,14.5333,56.17819,0.4539077,0,82.50386,-14.5333,5308.547
87.4,-14.56663,-0.4561615,0.01217409,0,0,0,0,0,14.56663,56.30704,0.4561615,0,82.79831,-14.56663,5319.219
87.60001,-14.59996,-0.4585626,0.01223817,0,0,0,0,0,14.59996,56.43589,0.4585626,0,83.09365,-14.59996,5331.449
87.8,-14.63303,-0.4605996,0.01229253,0,0,0,0,0,14.63303,56.56371,0.4605996,0,83.38748,-14.63303,5339.42
88.00001,-14.66663,-0.4632578,0.01236347,0,0,0,0,0,14.66663,56.69359,0.4632578,0,83.68694,-14.66663,5354.176
88.20001,-14.69996,-0.4655304,0.01242412,0,0,0,0,0,14.69996,56.82243,0.4655304,0,83.98491,-14.69996,5364.434
88.4,-14.7333,-0.4678205,0.01248524,0,0,0,0,0,14.7333,56.95129,0.4678205,0,84.28378,-14.7333,5374.737
88.60001,-14.76676,-0.4700273,0.01254414,0,0,0,0,0,14.76676,57.08065,0.4700273,0,84.58474,-14.76676,5383.863
88.8,-14.8001,-0.4723296,0.01260558,0,0,0,0,0,14.8001,57.2095,0.4723296,0,84.8854,-14.8001,5393.992
89.00001,-14.8333,-0.4746643,0.01266789,0,0,0,0,0,14.8333,57.33783,0.4746643,0,85.18576,-14.8333,5404.398
89.20001,-14.86623,-0.4766434,0.01272071,0,0,0,0,0,14.86623,57.46513,0.4766434,0,85.48461,-14.86623,5410.737
89.4,-14.8997,-0.4790832,0.01278582,0,0,0,0,0,14.8997,57.5945,0.4790832,0,85.78921,-14.8997,5421.893
89.60001,-14.93303,-0.4815305,0.01285114,0,0,0,0,0,14.93303,57.72335,0.4815305,0,86.09352,-14.93303,5433.03
89.8,-14.9665,-0.4837767,0.01291108,0,0,0,0,0,14.9665,57.85271,0.4837767,0,86.39999,-14.9665,5441.671
90.00001,-14.99983,-0.4861134,0.01297345,0,0,0,0,0,14.99983,57.98156,0.4861134,0,86.70617,-14.99983,5451.24
90.03001,-15.0049,-0.4870673,0.0129989,0,0,0,0,0,15.0049,58.00115,0.4870673,0,86.75279,-15.0049,5459.39