File: GFBaking/data/XG/XG_Compression_Data/XG_Compression_Specimen2.csv
Time sec,Extension mm,Load kgf,Compressive stress MPa,Cycle Count ,Total Cycle Count ,Repetitions Count ,Marked Data ,PIP Count ,Compressive extension mm,Compressive strain %,Compressive load kgf,Displacement (Strain 1) mm,True strain %,Corrected Position mm,True stress Pa
0,-1.080397,-0.00641651,0.0001356804,0,0,0,0,0,-1.964651E-016,-8.881784E-016,0.00641651,0,0,-1.080397,135.6804
0.2,-1.105331,-0.00868814,0.0001837152,0,0,0,0,0,0.02493325,0.1127181,0.008688141,0,0.1127817,-1.105331,183.5081
0.4,-1.144397,-0.01264884,0.0002674662,0,0,0,0,0,0.06399979,0.28933,0.01264884,0,0.2897493,-1.144397,266.6924
0.6,-1.179731,-0.01547549,0.0003272372,0,0,0,0,0,0.09933312,0.4490647,0.01547549,0,0.4500761,-1.179731,325.7677
0.8,-1.213597,-0.01820901,0.0003850389,0,0,0,0,0,0.1331996,0.6021683,0.01820901,0,0.6039886,-1.213597,382.7203
1,-1.24693,-0.02020936,0.0004273373,0,0,0,0,0,0.1665329,0.7528614,0.02020936,0,0.7557097,-1.24693,424.12
1.2,-1.280264,-0.02226554,0.0004708163,0,0,0,0,0,0.1998661,0.903554,0.02226554,0,0.9076607,-1.280264,466.5622
1.4,-1.31373,-0.02509639,0.0005306761,0,0,0,0,0,0.2333327,1.05485,0.02509639,0,1.060453,-1.31373,525.0783
1.6,-1.347063,-0.02694718,0.000569812,0,0,0,0,0,0.2666659,1.205542,0.02694718,0,1.212868,-1.347063,562.9426
1.8,-1.380397,-0.02923427,0.0006181736,0,0,0,0,0,0.2999993,1.356235,0.02923427,0,1.365516,-1.380397,609.7898
2,-1.413597,-0.03123402,0.0006604593,0,0,0,0,0,0.3331992,1.506325,0.03123402,0,1.517786,-1.413597,650.5107
2.2,-1.447063,-0.03361356,0.000710776,0,0,0,0,0,0.3666658,1.657621,0.03361356,0,1.671513,-1.447063,698.994
2.4,-1.48053,-0.03575574,0.0007560735,0,0,0,0,0,0.4001324,1.808917,0.03575574,0,1.825478,-1.48053,742.3968
2.6,-1.513596,-0.03800478,0.0008036307,0,0,0,0,0,0.4331989,1.958404,0.03800478,0,1.977834,-1.513596,787.8924
2.8,-1.546796,-0.04020152,0.0008500818,0,0,0,0,0,0.4663988,2.108494,0.04020152,0,2.13104,-1.546796,832.1579
3,-1.580263,-0.04268079,0.0009025073,0,0,0,0,0,0.4998654,2.259789,0.04268079,0,2.285714,-1.580263,882.1125
3.2,-1.613729,-0.04516014,0.0009549344,0,0,0,0,0,0.533332,2.411085,0.04516014,0,2.440627,-1.613729,931.9101
3.4,-1.647063,-0.04742937,0.001002918,0,0,0,0,0,0.5666652,2.561778,0.04742937,0,2.595162,-1.647063,977.2259
3.6,-1.680396,-0.04972861,0.001051537,0,0,0,0,0,0.5999985,2.712471,0.04972861,0,2.749937,-1.680396,1023.015
3.8,-1.713996,-0.05208685,0.001101403,0,0,0,0,0,0.6335984,2.864369,0.05208685,0,2.906193,-1.713996,1069.855
4,-1.747196,-0.05475545,0.001157832,0,0,0,0,0,0.6667984,3.014459,0.05475545,0,3.060828,-1.747196,1122.93
4.2,-1.780262,-0.05686019,0.001202338,0,0,0,0,0,0.6998649,3.163946,0.05686019,0,3.215081,-1.780262,1164.297
4.4,-1.813596,-0.05979527,0.001264402,0,0,0,0,0,0.7331981,3.314639,0.05979527,0,3.370818,-1.813596,1222.491
4.6,-1.846795,-0.06181446,0.001307099,0,0,0,0,0,0.766398,3.464729,0.06181446,0,3.526174,-1.846795,1261.811
4.8,-1.880395,-0.06433336,0.001360362,0,0,0,0,0,0.799998,3.616628,0.06433336,0,3.683649,-1.880395,1311.163
5,-1.913729,-0.06677818,0.001412059,0,0,0,0,0,0.8333313,3.76732,0.06677818,0,3.840118,-1.913729,1358.862
5.2,-1.946795,-0.06951313,0.001469891,0,0,0,0,0,0.8663979,3.916808,0.06951313,0,3.995578,-1.946795,1412.318
5.4,-1.980528,-0.07136692,0.00150909,0,0,0,0,0,0.900131,4.069309,0.07136692,0,4.154422,-1.980528,1447.681
5.6,-2.013862,-0.07373709,0.001559209,0,0,0,0,0,0.9334645,4.220002,0.07373708,0,4.311631,-2.013862,1493.41
5.8,-2.046928,-0.07629065,0.001613205,0,0,0,0,0,0.9665309,4.369489,0.07629065,0,4.467826,-2.046928,1542.716
6,-2.080128,-0.0789369,0.001669161,0,0,0,0,0,0.9997309,4.519579,0.0789369,0,4.624898,-2.080128,1593.722
6.2,-2.113595,-0.08148851,0.001723116,0,0,0,0,0,1.033198,4.670875,0.08148851,0,4.783481,-2.113595,1642.632
6.4,-2.147062,-0.0839542,0.001775255,0,0,0,0,0,1.066664,4.822171,0.08395421,0,4.942315,-2.147062,1689.649
6.6,-2.180395,-0.08660713,0.001831352,0,0,0,0,0,1.099997,4.972863,0.08660713,0,5.100768,-2.180395,1740.282
6.8,-2.213728,-0.08922628,0.001886736,0,0,0,0,0,1.13333,5.123556,0.08922628,0,5.259473,-2.213728,1790.068
7,-2.247328,-0.09196985,0.00194475,0,0,0,0,0,1.166931,5.275455,0.09196986,0,5.419703,-2.247328,1842.155
7.2,-2.280528,-0.09447149,0.001997648,0,0,0,0,0,1.20013,5.425544,0.09447149,0,5.578277,-2.280528,1889.265
7.4,-2.313594,-0.09708015,0.00205281,0,0,0,0,0,1.233197,5.575031,0.09708015,0,5.736465,-2.313594,1938.365
7.6,-2.346794,-0.09971618,0.00210855,0,0,0,0,0,1.266397,5.725122,0.09971618,0,5.895544,-2.346794,1987.833
7.8,-2.380128,-0.1024262,0.002165856,0,0,0,0,0,1.29973,5.875814,0.1024262,0,6.055515,-2.380128,2038.594
8,-2.413728,-0.1047757,0.002215535,0,0,0,0,0,1.33333,6.027713,0.1047757,0,6.217027,-2.413728,2081.989
8.200001,-2.446927,-0.1073966,0.002270957,0,0,0,0,0,1.36653,6.177803,0.1073966,0,6.376871,-2.446927,2130.661
8.400001,-2.480261,-0.1097232,0.002320153,0,0,0,0,0,1.399863,6.328496,0.1097232,0,6.537616,-2.480261,2173.322
8.6,-2.513727,-0.1118427,0.002364972,0,0,0,0,0,1.43333,6.479791,0.1118427,0,6.699263,-2.513727,2211.727
8.8,-2.547194,-0.1142849,0.002416612,0,0,0,0,0,1.466796,6.631087,0.1142849,0,6.861173,-2.547194,2256.365
9,-2.58026,-0.1166186,0.00246596,0,0,0,0,0,1.499863,6.780574,0.1166186,0,7.021405,-2.58026,2298.754
9.200001,-2.61346,-0.118924,0.002514709,0,0,0,0,0,1.533063,6.930665,0.118924,0,7.182543,-2.61346,2340.423
9.400001,-2.646927,-0.1215191,0.002569583,0,0,0,0,0,1.566529,7.081959,0.1215191,0,7.345236,-2.646927,2387.606
9.6,-2.680527,-0.1241999,0.00262627,0,0,0,0,0,1.600129,7.233858,0.1241999,0,7.508846,-2.680527,2436.289
9.8,-2.713727,-0.1267052,0.002679246,0,0,0,0,0,1.633329,7.383949,0.1267052,0,7.670772,-2.713727,2481.412
10,-2.746927,-0.1289754,0.002727252,0,0,0,0,0,1.666529,7.534038,0.1289754,0,7.832959,-2.746927,2521.779
10.2,-2.78066,-0.131289,0.002776173,0,0,0,0,0,1.700262,7.686539,0.131289,0,7.998022,-2.78066,2562.782
10.4,-2.81386,-0.1338562,0.002830459,0,0,0,0,0,1.733462,7.836629,0.1338562,0,8.160742,-2.81386,2608.646
10.6,-2.846926,-0.1361517,0.002878998,0,0,0,0,0,1.766529,7.986117,0.1361517,0,8.323072,-2.846926,2649.078
10.8,-2.88026,-0.138905,0.002937218,0,0,0,0,0,1.799862,8.136809,0.138905,0,8.486977,-2.88026,2698.222
11,-2.913593,-0.141489,0.002991859,0,0,0,0,0,1.833195,8.287502,0.141489,0,8.651152,-2.913593,2743.908
11.2,-2.946926,-0.144277,0.003050811,0,0,0,0,0,1.866529,8.438194,0.144277,0,8.815597,-2.946926,2793.378
11.4,-2.980259,-0.1467734,0.0031036,0,0,0,0,0,1.899862,8.588888,0.1467734,0,8.980314,-2.980259,2837.035
11.6,-3.013459,-0.1491004,0.003152806,0,0,0,0,0,1.933062,8.738977,0.1491004,0,9.14464,-3.013459,2877.283
11.8,-3.047059,-0.1517838,0.003209546,0,0,0,0,0,1.966662,8.890877,0.1517838,0,9.311224,-3.047059,2924.19
12,-3.080659,-0.1541746,0.003260101,0,0,0,0,0,2.000262,9.042774,0.1541746,0,9.478083,-3.080659,2965.298
12.2,-3.113726,-0.1565585,0.00331051,0,0,0,0,0,2.033328,9.192262,0.1565585,0,9.642567,-3.113726,3006.199
12.4,-3.146792,-0.1588993,0.003360009,0,0,0,0,0,2.066395,9.341749,0.1588994,0,9.807324,-3.146792,3046.125
12.6,-3.180259,-0.1615483,0.003416021,0,0,0,0,0,2.099862,9.493045,0.1615483,0,9.974349,-3.180259,3091.737
12.8,-3.213859,-0.1638126,0.003463903,0,0,0,0,0,2.133461,9.644943,0.1638126,0,10.14232,-3.213859,3129.811
13,-3.247059,-0.1663083,0.003516675,0,0,0,0,0,2.166662,9.795033,0.1663083,0,10.30857,-3.247059,3172.215
13.2,-3.280392,-0.1686868,0.003566969,0,0,0,0,0,2.199994,9.945725,0.1686868,0,10.47576,-3.280392,3212.208
13.4,-3.313859,-0.1711182,0.003618382,0,0,0,0,0,2.233461,10.09702,0.1711182,0,10.64391,-3.313859,3253.034
13.6,-3.347192,-0.1734837,0.003668402,0,0,0,0,0,2.266794,10.24771,0.1734837,0,10.81167,-3.347192,3292.475
13.8,-3.380392,-0.1758899,0.003719283,0,0,0,0,0,2.299994,10.3978,0.1758899,0,10.97904,-3.380392,3332.559
14,-3.413458,-0.178198,0.003768088,0,0,0,0,0,2.333061,10.54729,0.178198,0,11.14601,-3.413458,3370.657
14.2,-3.447058,-0.1806993,0.00382098,0,0,0,0,0,2.366661,10.69919,0.1806993,0,11.31596,-3.447058,3412.166
14.4,-3.480392,-0.1829562,0.003868703,0,0,0,0,0,2.399994,10.84988,0.1829562,0,11.48485,-3.480392,3448.954
14.6,-3.513858,-0.1851838,0.003915807,0,0,0,0,0,2.433461,11.00118,0.1851838,0,11.65471,-3.513858,3485.022
14.8,-3.546925,-0.1877644,0.003970375,0,0,0,0,0,2.466527,11.15067,0.1877644,0,11.82281,-3.546925,3527.652
15,-3.580525,-0.1900122,0.004017906,0,0,0,0,0,2.500127,11.30256,0.1900122,0,11.99392,-3.580525,3563.78
15.2,-3.613858,-0.1926627,0.004073953,0,0,0,0,0,2.53346,11.45326,0.1926627,0,12.16396,-3.613858,3607.352
15.4,-3.646791,-0.1948872,0.004120989,0,0,0,0,0,2.566394,11.60214,0.1948872,0,12.33224,-3.646791,3642.866
15.6,-3.680124,-0.1972413,0.00417077,0,0,0,0,0,2.599727,11.75283,0.1972413,0,12.50286,-3.680124,3680.586
15.8,-3.713458,-0.199786,0.004224578,0,0,0,0,0,2.63306,11.90353,0.199786,0,12.67377,-3.713458,3721.704
16,-3.747191,-0.2021492,0.004274548,0,0,0,0,0,2.666794,12.05603,0.2021492,0,12.84703,-3.747191,3759.207
16.2,-3.780391,-0.2047562,0.004329674,0,0,0,0,0,2.699993,12.20612,0.2047562,0,13.01784,-3.780391,3801.189
16.4,-3.813724,-0.2070872,0.004378965,0,0,0,0,0,2.733327,12.35681,0.2070872,0,13.18963,-3.813724,3837.865
16.6,-3.847191,-0.2096587,0.004433341,0,0,0,0,0,2.766793,12.50811,0.2096587,0,13.36241,-3.847191,3878.814
16.8,-3.880524,-0.211899,0.004480714,0,0,0,0,0,2.800126,12.6588,0.211899,0,13.53479,-3.880524,3913.509
17,-3.913724,-0.2143487,0.004532513,0,0,0,0,0,2.833327,12.80889,0.2143487,0,13.70678,-3.913724,3951.948
17.2,-3.946924,-0.2163228,0.004574257,0,0,0,0,0,2.866526,12.95898,0.2163228,0,13.87907,-3.946924,3981.48
17.4,-3.980257,-0.2186008,0.004622427,0,0,0,0,0,2.89986,13.10967,0.2186008,0,14.05235,-3.980257,4016.442
17.6,-4.013724,-0.2207726,0.00466835,0,0,0,0,0,2.933326,13.26097,0.2207726,0,14.22662,-4.013724,4049.282
17.8,-4.04719,-0.22307,0.00471693,0,0,0,0,0,2.966793,13.41226,0.22307,0,14.4012,-4.04719,4084.282
18,-4.080123,-0.2253105,0.004764306,0,0,0,0,0,2.999726,13.56115,0.2253105,0,14.57329,-4.080123,4118.211
18.2,-4.113857,-0.227582,0.004812339,0,0,0,0,0,3.033459,13.71365,0.227582,0,14.74988,-4.113857,4152.392
18.4,-4.14719,-0.2296955,0.00485703,0,0,0,0,0,3.066793,13.86434,0.2296955,0,14.92467,-4.14719,4183.635
18.6,-4.18039,-0.2317504,0.004900482,0,0,0,0,0,3.099993,14.01443,0.2317504,0,15.09907,-4.18039,4213.707
18.8,-4.213457,-0.233479,0.004937034,0,0,0,0,0,3.133059,14.16392,0.233479,0,15.27308,-4.213457,4237.756
19,-4.246923,-0.2358788,0.004987779,0,0,0,0,0,3.166526,14.31522,0.2358788,0,15.44949,-4.246923,4273.768
19.2,-4.280523,-0.2378568,0.005029604,0,0,0,0,0,3.200125,14.46711,0.2378568,0,15.62692,-4.280523,4301.965
19.4,-4.313723,-0.2399256,0.00507335,0,0,0,0,0,3.233325,14.6172,0.2399256,0,15.80255,-4.313723,4331.768
19.6,-4.347056,-0.2420584,0.005118449,0,0,0,0,0,3.266659,14.7679,0.2420584,0,15.9792,-4.347056,4362.561
19.8,-4.380656,-0.2440335,0.005160214,0,0,0,0,0,3.300258,14.91979,0.2440335,0,16.15758,-4.380656,4390.321
20,-4.413856,-0.2461295,0.005204535,0,0,0,0,0,3.333459,15.06989,0.2461295,0,16.33415,-4.413856,4420.217
20.2,-4.446922,-0.2480434,0.005245004,0,0,0,0,0,3.366525,15.21937,0.2480434,0,16.51031,-4.446922,4446.748
20.4,-4.480256,-0.2499733,0.005285815,0,0,0,0,0,3.399858,15.37006,0.2499733,0,16.68821,-4.480256,4473.382
20.6,-4.513589,-0.2517965,0.005324367,0,0,0,0,0,3.433192,15.52076,0.2517965,0,16.86644,-4.513589,4497.985
20.8,-4.547056,-0.2536638,0.005363851,0,0,0,0,0,3.466658,15.67205,0.2536638,0,17.04569,-4.547056,4523.226
21,-4.580389,-0.2555127,0.005402947,0,0,0,0,0,3.499991,15.82275,0.2555127,0,17.22454,-4.580389,4548.052
21.2,-4.613589,-0.257326,0.00544129,0,0,0,0,0,3.533192,15.97284,0.257326,0,17.40301,-4.613589,4572.162
21.4,-4.647055,-0.2591794,0.005480482,0,0,0,0,0,3.566658,16.12413,0.2591794,0,17.58322,-4.647055,4596.802
21.6,-4.680389,-0.2607866,0.005514467,0,0,0,0,0,3.599991,16.27482,0.2607866,0,17.76305,-4.680389,4616.997
21.8,-4.713722,-0.2624794,0.005550261,0,0,0,0,0,3.633325,16.42552,0.2624794,0,17.94319,-4.713722,4638.602
22,-4.746789,-0.264097,0.005584467,0,0,0,0,0,3.666391,16.57501,0.264097,0,18.12222,-4.746789,4658.842
22.2,-4.780388,-0.2656272,0.005616825,0,0,0,0,0,3.699991,16.7269,0.2656272,0,18.30447,-4.780388,4677.304
22.4,-4.813855,-0.2673702,0.005653681,0,0,0,0,0,3.733458,16.8782,0.2673702,0,18.48632,-4.813855,4699.441
22.6,-4.846922,-0.2690031,0.005688209,0,0,0,0,0,3.766524,17.02769,0.2690031,0,18.66632,-4.846922,4719.639
22.8,-4.880255,-0.2706127,0.005722244,0,0,0,0,0,3.799857,17.17838,0.2706127,0,18.8481,-4.880255,4739.256
23,-4.913855,-0.2723296,0.005758549,0,0,0,0,0,3.833458,17.33028,0.2723296,0,19.03168,-4.913855,4760.577
23.2,-4.947188,-0.2737924,0.005789482,0,0,0,0,0,3.866791,17.48097,0.2737924,0,19.21413,-4.947188,4777.424
23.4,-4.980254,-0.2752498,0.005820299,0,0,0,0,0,3.899857,17.63046,0.2752498,0,19.39544,-4.980254,4794.154
23.6,-5.013588,-0.2768388,0.005853899,0,0,0,0,0,3.93319,17.78115,0.2768388,0,19.57856,-5.013588,4813.009
23.8,-5.046921,-0.2783023,0.005884845,0,0,0,0,0,3.966524,17.93184,0.2783023,0,19.76201,-5.046921,4829.583
24,-5.080387,-0.2796217,0.005912744,0,0,0,0,0,3.99999,18.08314,0.2796217,0,19.94653,-5.080387,4843.535
24.2,-5.113721,-0.2809339,0.005940492,0,0,0,0,0,4.033323,18.23383,0.2809339,0,20.13066,-5.113721,4857.313
24.4,-5.146921,-0.2821369,0.00596593,0,0,0,0,0,4.066523,18.38392,0.2821369,0,20.31439,-5.146921,4869.159
24.6,-5.180387,-0.2833388,0.005991344,0,0,0,0,0,4.09999,18.53522,0.2833388,0,20.49994,-5.180387,4880.835
24.8,-5.213988,-0.2846789,0.006019682,0,0,0,0,0,4.13359,18.68712,0.2846789,0,20.68657,-5.213988,4894.777
25,-5.246921,-0.2858402,0.006044239,0,0,0,0,0,4.166523,18.836,0.2858402,0,20.86984,-5.246921,4905.746
25.2,-5.28012,-0.2871496,0.006071925,0,0,0,0,0,4.199723,18.98609,0.2871495,0,21.05493,-5.28012,4919.104
25.4,-5.313587,-0.2883378,0.006097052,0,0,0,0,0,4.23319,19.13738,0.2883378,0,21.24186,-5.313587,4930.236
25.6,-5.347054,-0.2895201,0.006122051,0,0,0,0,0,4.266656,19.28868,0.2895201,0,21.42914,-5.347054,4941.188
25.8,-5.380387,-0.2905558,0.006143953,0,0,0,0,0,4.29999,19.43937,0.2905558,0,21.61602,-5.380387,4949.607
26,-5.413454,-0.291475,0.006163389,0,0,0,0,0,4.333056,19.58886,0.291475,0,21.80175,-5.413454,4956.051
26.2,-5.44732,-0.2929065,0.006193659,0,0,0,0,0,4.366923,19.74197,0.2929065,0,21.99233,-5.44732,4970.909
26.4,-5.48052,-0.2941003,0.006218903,0,0,0,0,0,4.400123,19.89206,0.2941003,0,22.17952,-5.48052,4981.835
26.6,-5.51372,-0.2949187,0.006236207,0,0,0,0,0,4.433322,20.04214,0.2949187,0,22.36705,-5.51372,4986.338
26.8,-5.54692,-0.295944,0.006257887,0,0,0,0,0,4.466523,20.19224,0.295944,0,22.55494,-5.54692,4994.28
27,-5.580253,-0.2968946,0.006277989,0,0,0,0,0,4.499856,20.34293,0.2968946,0,22.74394,-5.580253,5000.862
27.2,-5.61372,-0.2980176,0.006301736,0,0,0,0,0,4.533322,20.49422,0.2980176,0,22.93405,-5.61372,5010.244
27.4,-5.647053,-0.2992331,0.006327437,0,0,0,0,0,4.566656,20.64492,0.2992331,0,23.12377,-5.647053,5021.143
27.6,-5.680253,-0.3003031,0.006350063,0,0,0,0,0,4.599855,20.79501,0.3003031,0,23.31308,-5.680253,5029.567
27.8,-5.713719,-0.3014638,0.006374606,0,0,0,0,0,4.633322,20.9463,0.3014638,0,23.50428,-5.713719,5039.362
28,-5.747319,-0.3028451,0.006403815,0,0,0,0,0,4.666922,21.0982,0.3028451,0,23.69661,-5.747319,5052.726
28.2,-5.780253,-0.304019,0.006428638,0,0,0,0,0,4.699855,21.24709,0.304019,0,23.88549,-5.780253,5062.739
28.4,-5.813452,-0.3050427,0.006450285,0,0,0,0,0,4.733055,21.39717,0.3050427,0,24.07625,-5.813452,5070.106
28.6,-5.846919,-0.3063911,0.006478799,0,0,0,0,0,4.766521,21.54847,0.3063911,0,24.26892,-5.846919,5082.716
28.8,-5.880519,-0.3076478,0.00650537,0,0,0,0,0,4.800122,21.70037,0.3076478,0,24.46273,-5.880519,5093.681
29,-5.913719,-0.3087171,0.006527981,0,0,0,0,0,4.833322,21.85046,0.3087171,0,24.6546,-5.913719,5101.587
29.2,-5.946919,-0.3100781,0.006556761,0,0,0,0,0,4.866521,22.00055,0.3100781,0,24.84684,-5.946919,5114.237
29.4,-5.980652,-0.3113268,0.006583165,0,0,0,0,0,4.900255,22.15305,0.3113268,0,25.04255,-5.980652,5124.793
29.6,-6.013852,-0.3125439,0.006608902,0,0,0,0,0,4.933455,22.30314,0.312544,0,25.23553,-6.013852,5134.91
29.8,-6.047052,-0.3137445,0.006634288,0,0,0,0,0,4.966654,22.45323,0.3137445,0,25.42889,-6.047052,5144.676
30,-6.080252,-0.3149661,0.006660121,0,0,0,0,0,4.999854,22.60332,0.3149661,0,25.62263,-6.080252,5154.713
30.2,-6.113585,-0.3155198,0.006671828,0,0,0,0,0,5.033187,22.75401,0.3155198,0,25.81752,-6.113585,5153.72
30.4,-6.147052,-0.3167457,0.006697751,0,0,0,0,0,5.066655,22.90531,0.3167457,0,26.01358,-6.147052,5163.61
30.6,-6.180385,-0.3181126,0.006726654,0,0,0,0,0,5.099988,23.056,0.3181126,0,26.20923,-6.180385,5175.756
30.8,-6.213585,-0.3195021,0.006756037,0,0,0,0,0,5.133187,23.20609,0.3195021,0,26.40449,-6.213585,5188.225
31,-6.247052,-0.3209541,0.00678674,0,0,0,0,0,5.166654,23.35739,0.3209541,0,26.6017,-6.247052,5201.535
31.2,-6.280518,-0.3224177,0.006817688,0,0,0,0,0,5.200121,23.50868,0.3224177,0,26.7993,-6.280518,5214.939
31.4,-6.313585,-0.3236081,0.00684286,0,0,0,0,0,5.233187,23.65817,0.3236081,0,26.99492,-6.313585,5223.964
31.6,-6.346785,-0.3246654,0.006865216,0,0,0,0,0,5.266387,23.80826,0.3246654,0,27.19171,-6.346785,5230.728
31.8,-6.380251,-0.3258749,0.006890792,0,0,0,0,0,5.299854,23.95956,0.3258749,0,27.39048,-6.380251,5239.789
32,-6.413851,-0.3270655,0.006915969,0,0,0,0,0,5.333453,24.11145,0.3270655,0,27.59044,-6.413851,5248.428
32.2,-6.447051,-0.3283911,0.006943999,0,0,0,0,0,5.366653,24.26154,0.3283911,0,27.78841,-6.447051,5259.278
32.4,-6.480384,-0.3296829,0.006971315,0,0,0,0,0,5.399987,24.41224,0.3296829,0,27.98758,-6.480384,5269.461
32.6,-6.513851,-0.330927,0.006997621,0,0,0,0,0,5.433453,24.56353,0.330927,0,28.18794,-6.513851,5278.758
32.8,-6.547051,-0.3320805,0.007022013,0,0,0,0,0,5.466653,24.71362,0.3320805,0,28.3871,-6.547051,5286.619
33,-6.580384,-0.3335282,0.007052624,0,0,0,0,0,5.499987,24.86432,0.3335282,0,28.58746,-6.580384,5299.038
33.2,-6.613584,-0.3345306,0.007073822,0,0,0,0,0,5.533186,25.0144,0.3345306,0,28.78741,-6.613584,5304.348
33.4,-6.646917,-0.3355672,0.007095742,0,0,0,0,0,5.56652,25.1651,0.3355672,0,28.98858,-6.646917,5310.091
33.6,-6.680384,-0.3366631,0.007118915,0,0,0,0,0,5.599987,25.31639,0.3366631,0,29.19096,-6.680384,5316.662
33.8,-6.713584,-0.3376353,0.007139472,0,0,0,0,0,5.633186,25.46648,0.3376353,0,29.39213,-6.713584,5321.3
34,-6.746917,-0.3387931,0.007163955,0,0,0,0,0,5.66652,25.61718,0.3387932,0,29.59452,-6.746917,5328.752
34.2,-6.780384,-0.3398693,0.007186711,0,0,0,0,0,5.699986,25.76847,0.3398693,0,29.79812,-6.780384,5334.805
34.4,-6.81385,-0.3408708,0.007207889,0,0,0,0,0,5.733453,25.91977,0.3408708,0,30.00215,-6.81385,5339.621
34.6,-6.846916,-0.3421599,0.007235148,0,0,0,0,0,5.766519,26.06925,0.3421599,0,30.20414,-6.846916,5348.999
34.8,-6.880117,-0.3432634,0.007258482,0,0,0,0,0,5.799719,26.21935,0.3432634,0,30.40736,-6.880117,5355.356
35,-6.913583,-0.3442162,0.007278628,0,0,0,0,0,5.833186,26.37064,0.3442162,0,30.61263,-6.913583,5359.207
35.2,-6.947183,-0.3458356,0.007312871,0,0,0,0,0,5.866786,26.52254,0.3458356,0,30.81915,-6.947183,5373.312
35.4,-6.980383,-0.3468942,0.007335257,0,0,0,0,0,5.899985,26.67263,0.3468942,0,31.02362,-6.980383,5378.751
35.6,-7.013716,-0.3477852,0.007354098,0,0,0,0,0,5.933319,26.82332,0.3477852,0,31.22934,-7.013716,5381.485
35.8,-7.047316,-0.3493874,0.007387977,0,0,0,0,0,5.966918,26.97522,0.3493874,0,31.43713,-7.047316,5395.054
36,-7.080516,-0.3505182,0.007411887,0,0,0,0,0,6.000118,27.12531,0.3505182,0,31.64288,-7.080516,5401.39
36.2,-7.113716,-0.3514103,0.007430751,0,0,0,0,0,6.033319,27.2754,0.3514103,0,31.84905,-7.113716,5403.984
36.4,-7.146916,-0.3522986,0.007449536,0,0,0,0,0,6.066519,27.42549,0.3522986,0,32.05565,-7.146916,5406.464
36.6,-7.180116,-0.3533459,0.00747168,0,0,0,0,0,6.099719,27.57558,0.3533459,0,32.26267,-7.180116,5411.321
36.8,-7.213716,-0.3545349,0.007496823,0,0,0,0,0,6.133318,27.72748,0.3545349,0,32.47262,-7.213716,5418.143
37,-7.246916,-0.3556751,0.007520934,0,0,0,0,0,6.166518,27.87757,0.3556751,0,32.68051,-7.246916,5424.28
37.2,-7.280249,-0.3566996,0.007542596,0,0,0,0,0,6.199851,28.02826,0.3566996,0,32.88966,-7.280249,5428.538
37.4,-7.313715,-0.3578794,0.007567544,0,0,0,0,0,6.233318,28.17956,0.3578794,0,33.1001,-7.313715,5435.044
37.6,-7.347049,-0.3589803,0.007590823,0,0,0,0,0,6.266651,28.33025,0.3589803,0,33.31014,-7.347049,5440.324
37.8,-7.380249,-0.360327,0.0076193,0,0,0,0,0,6.299851,28.48034,0.360327,0,33.51978,-7.380249,5449.298
38,-7.413449,-0.3614656,0.007643376,0,0,0,0,0,6.333051,28.63043,0.3614656,0,33.72986,-7.413449,5455.045
38.2,-7.447049,-0.3628314,0.007672257,0,0,0,0,0,6.366652,28.78233,0.3628314,0,33.94292,-7.447049,5464.003
38.4,-7.480382,-0.3642792,0.007702872,0,0,0,0,0,6.399984,28.93302,0.3642792,0,34.15474,-7.480382,5474.199
38.6,-7.513582,-0.3654432,0.007727483,0,0,0,0,0,6.433185,29.08311,0.3654431,0,34.36616,-7.513582,5480.091
38.8,-7.547048,-0.3667894,0.007755951,0,0,0,0,0,6.466651,29.23441,0.3667894,0,34.57973,-7.547048,5488.545
39,-7.580648,-0.3683363,0.007788661,0,0,0,0,0,6.500251,29.3863,0.3683363,0,34.79461,-7.580648,5499.861
39.2,-7.613848,-0.3697854,0.007819302,0,0,0,0,0,6.533451,29.53639,0.3697854,0,35.00738,-7.613848,5509.762
39.4,-7.647048,-0.3708296,0.007841383,0,0,0,0,0,6.566651,29.68649,0.3708296,0,35.22062,-7.647048,5513.552
39.6,-7.680248,-0.3724223,0.00787506,0,0,0,0,0,6.599851,29.83658,0.3724222,0,35.4343,-7.680248,5525.412
39.8,-7.713448,-0.3739972,0.007908363,0,0,0,0,0,6.63305,29.98667,0.3739972,0,35.64845,-7.713448,5536.909
40,-7.747048,-0.3753112,0.007936147,0,0,0,0,0,6.66665,30.13856,0.3753111,0,35.86564,-7.747048,5544.307
40.2,-7.780381,-0.3764749,0.007960754,0,0,0,0,0,6.699984,30.28926,0.3764749,0,36.08157,-7.780381,5549.501
40.4,-7.813448,-0.3781991,0.007997215,0,0,0,0,0,6.73305,30.43875,0.3781991,0,36.29625,-7.813448,5562.963
40.6,-7.847047,-0.3795417,0.008025603,0,0,0,0,0,6.76665,30.59064,0.3795417,0,36.51485,-7.847047,5570.52
40.8,-7.880514,-0.381457,0.008066105,0,0,0,0,0,6.800117,30.74194,0.381457,0,36.73306,-7.880514,5586.427
41,-7.913581,-0.382536,0.008088919,0,0,0,0,0,6.833184,30.89143,0.382536,0,36.94914,-7.913581,5590.137
41.2,-7.946781,-0.3838995,0.008117753,0,0,0,0,0,6.866384,31.04152,0.3838995,0,37.16656,-7.946781,5597.879
41.4,-7.980247,-0.3852687,0.008146705,0,0,0,0,0,6.899849,31.19281,0.3852687,0,37.38619,-7.980247,5605.519
41.6,-8.013847,-0.3865129,0.008173014,0,0,0,0,0,6.93345,31.34471,0.3865129,0,37.6072,-8.013847,5611.207
41.8,-8.046914,-0.3878771,0.00820186,0,0,0,0,0,6.966516,31.4942,0.3878771,0,37.82517,-8.046914,5618.75
42,-8.08038,-0.3893604,0.008233227,0,0,0,0,0,6.999982,31.64549,0.3893604,0,38.04626,-8.08038,5627.782
42.2,-8.11398,-0.3908043,0.008263758,0,0,0,0,0,7.033583,31.79739,0.3908043,0,38.26874,-8.11398,5636.099
42.4,-8.14718,-0.3920977,0.008291108,0,0,0,0,0,7.066783,31.94748,0.3920977,0,38.48905,-8.14718,5642.308
42.6,-8.180247,-0.3934729,0.008320187,0,0,0,0,0,7.09985,32.09697,0.3934729,0,38.70895,-8.180247,5649.659
42.8,-8.213714,-0.3948221,0.008348716,0,0,0,0,0,7.133316,32.24826,0.3948221,0,38.93201,-8.213714,5656.4
43,-8.246914,-0.3963508,0.008381042,0,0,0,0,0,7.166516,32.39835,0.3963508,0,39.15379,-8.246914,5665.722
43.2,-8.28038,-0.397661,0.008408746,0,0,0,0,0,7.199982,32.54965,0.3976609,0,39.37784,-8.28038,5671.728
43.4,-8.313714,-0.3992052,0.008441399,0,0,0,0,0,7.233316,32.70034,0.3992051,0,39.60151,-8.313714,5681.032
43.6,-8.346913,-0.4005209,0.008469219,0,0,0,0,0,7.266516,32.85043,0.4005209,0,39.82477,-8.346913,5687.044
43.8,-8.38038,-0.4020591,0.008501746,0,0,0,0,0,7.299983,33.00173,0.4020591,0,40.05034,-8.38038,5696.023
44,-8.413847,-0.4037411,0.008537313,0,0,0,0,0,7.333449,33.15303,0.4037411,0,40.27642,-8.413847,5706.935
44.2,-8.446779,-0.4052023,0.008568211,0,0,0,0,0,7.366382,33.30191,0.4052023,0,40.49938,-8.446779,5714.834
44.4,-8.480113,-0.4064075,0.008593696,0,0,0,0,0,7.399715,33.4526,0.4064075,0,40.72557,-8.480113,5718.881
44.6,-8.513579,-0.4079372,0.008626041,0,0,0,0,0,7.433182,33.6039,0.4079371,0,40.95318,-8.513579,5727.355
44.8,-8.547046,-0.4093515,0.008655948,0,0,0,0,0,7.466648,33.75519,0.4093515,0,41.18131,-8.547046,5734.116
45,-8.580246,-0.410677,0.008683976,0,0,0,0,0,7.499849,33.90528,0.410677,0,41.40814,-8.580246,5739.649
45.2,-8.613712,-0.4121557,0.008715244,0,0,0,0,0,7.533315,34.05658,0.4121557,0,41.6373,-8.613712,5747.13
45.4,-8.647312,-0.4137203,0.008748328,0,0,0,0,0,7.566915,34.20848,0.4137203,0,41.86792,-8.647312,5755.659
45.6,-8.680512,-0.4152411,0.008780486,0,0,0,0,0,7.600115,34.35857,0.4152411,0,42.09631,-8.680512,5763.637
45.8,-8.713712,-0.4167851,0.008813134,0,0,0,0,0,7.633315,34.50866,0.4167851,0,42.32522,-8.713712,5771.84
46,-8.747046,-0.418601,0.008851533,0,0,0,0,0,7.666648,34.65935,0.418601,0,42.55558,-8.747046,5783.649
46.2,-8.780246,-0.4199345,0.00887973,0,0,0,0,0,7.699848,34.80944,0.4199345,0,42.78555,-8.780246,5788.746
46.4,-8.813579,-0.4215473,0.008913834,0,0,0,0,0,7.733181,34.96013,0.4215473,0,43.01697,-8.813579,5797.546
46.6,-8.847045,-0.4232012,0.008948807,0,0,0,0,0,7.766648,35.11143,0.4232012,0,43.24987,-8.847045,5806.753
46.8,-8.880379,-0.4249982,0.008986806,0,0,0,0,0,7.799982,35.26212,0.4249982,0,43.48237,-8.880379,5817.868
47,-8.913712,-0.4266851,0.009022475,0,0,0,0,0,7.833314,35.41281,0.4266851,0,43.71541,-8.913712,5827.363
47.2,-8.947179,-0.4284723,0.009060267,0,0,0,0,0,7.866781,35.56411,0.4284723,0,43.94994,-8.947179,5838.064
47.4,-8.980379,-0.4303164,0.009099263,0,0,0,0,0,7.899981,35.7142,0.4303164,0,44.18314,-8.980379,5849.534
47.6,-9.013445,-0.4320107,0.009135089,0,0,0,0,0,7.933049,35.86369,0.4320107,0,44.41595,-9.013445,5858.909
47.8,-9.047044,-0.433989,0.00917692,0,0,0,0,0,7.966647,36.01558,0.433989,0,44.65306,-9.047044,5871.799
48,-9.080512,-0.4358892,0.009217101,0,0,0,0,0,8.000114,36.16688,0.4358892,0,44.8898,-9.080512,5883.563
48.2,-9.113578,-0.4376862,0.009255099,0,0,0,0,0,8.03318,36.31637,0.4376862,0,45.12426,-9.113578,5893.983
48.4,-9.147044,-0.4391338,0.00928571,0,0,0,0,0,8.066647,36.46766,0.4391338,0,45.36211,-9.147044,5899.429
48.6,-9.180645,-0.4409539,0.009324198,0,0,0,0,0,8.100247,36.61956,0.4409539,0,45.60149,-9.180645,5909.717
48.8,-9.213844,-0.4424632,0.009356112,0,0,0,0,0,8.133448,36.76965,0.4424632,0,45.83859,-9.213844,5915.902
49,-9.247044,-0.4438047,0.009384478,0,0,0,0,0,8.166648,36.91974,0.4438047,0,46.07624,-9.247044,5919.753
49.2,-9.280377,-0.4455758,0.009421929,0,0,0,0,0,8.19998,37.07043,0.4455758,0,46.31541,-9.280377,5929.179
49.4,-9.313444,-0.447109,0.009454349,0,0,0,0,0,8.233047,37.21992,0.447109,0,46.55323,-9.313444,5935.448
49.6,-9.347044,-0.448961,0.009493511,0,0,0,0,0,8.266646,37.37182,0.448961,0,46.79548,-9.347044,5945.613
49.8,-9.380244,-0.4506557,0.009529347,0,0,0,0,0,8.299847,37.52191,0.4506557,0,47.03542,-9.380244,5953.754
50,-9.413578,-0.4525708,0.009569842,0,0,0,0,0,8.33318,37.6726,0.4525708,0,47.27691,-9.413578,5964.633
50.2,-9.447044,-0.4542321,0.009604972,0,0,0,0,0,8.366646,37.8239,0.4542321,0,47.51995,-9.447044,5971.997
50.4,-9.480377,-0.45646,0.009652081,0,0,0,0,0,8.39998,37.97459,0.45646,0,47.7626,-9.480377,5986.743
50.6,-9.513577,-0.4584099,0.009693312,0,0,0,0,0,8.433179,38.12468,0.4584099,0,48.00488,-9.513577,5997.768
50.8,-9.546777,-0.4604419,0.009736281,0,0,0,0,0,8.46638,38.27477,0.4604419,0,48.24775,-9.546777,6009.742
51,-9.580377,-0.4626328,0.009782609,0,0,0,0,0,8.499979,38.42667,0.4626328,0,48.49413,-9.580377,6023.478
51.2,-9.613844,-0.464779,0.00982799,0,0,0,0,0,8.533447,38.57797,0.464779,0,48.74016,-9.613844,6036.551
51.4,-9.647043,-0.4667112,0.009868848,0,0,0,0,0,8.566647,38.72806,0.4667112,0,48.98482,-9.647043,6046.835
51.6,-9.680376,-0.4686759,0.009910394,0,0,0,0,0,8.599978,38.87875,0.4686759,0,49.23105,-9.680376,6057.357
51.8,-9.713977,-0.471395,0.009967889,0,0,0,0,0,8.633579,39.03065,0.471395,0,49.47989,-9.713977,6077.357
52,-9.747176,-0.4732842,0.01000784,0,0,0,0,0,8.666779,39.18074,0.4732842,0,49.72636,-9.747176,6086.693
52.2,-9.780243,-0.4754188,0.01005297,0,0,0,0,0,8.699845,39.33022,0.4754188,0,49.97245,-9.780243,6099.117
52.4,-9.813576,-0.4774585,0.01009611,0,0,0,0,0,8.733178,39.48092,0.4774585,0,50.22114,-9.813576,6110.071
52.6,-9.846909,-0.4793496,0.01013609,0,0,0,0,0,8.766512,39.63161,0.4793496,0,50.47045,-9.846909,6118.998
52.8,-9.880376,-0.4814221,0.01017992,0,0,0,0,0,8.799978,39.78291,0.4814221,0,50.72139,-9.880376,6130.051
53,-9.913709,-0.4833038,0.01021971,0,0,0,0,0,8.833311,39.9336,0.4833038,0,50.97195,-9.913709,6138.611
53.2,-9.946909,-0.4853003,0.01026192,0,0,0,0,0,8.866511,40.08369,0.4853003,0,51.22214,-9.946909,6148.567
53.4,-9.980376,-0.4872776,0.01030374,0,0,0,0,0,8.899979,40.23499,0.4872777,0,51.47497,-9.980376,6158.03
53.6,-10.01384,-0.4897626,0.01035628,0,0,0,0,0,8.933445,40.38628,0.4897626,0,51.72844,-10.01384,6173.765
53.8,-10.04691,-0.4916002,0.01039514,0,0,0,0,0,8.966511,40.53577,0.4916002,0,51.97951,-10.04691,6181.39
54,-10.08011,-0.4936585,0.01043866,0,0,0,0,0,8.999711,40.68586,0.4936585,0,52.23224,-10.08011,6191.604
54.2,-10.11371,-0.4958953,0.01048596,0,0,0,0,0,9.033311,40.83775,0.4958953,0,52.48866,-10.11371,6203.731
54.4,-10.14718,-0.4979341,0.01052907,0,0,0,0,0,9.066778,40.98905,0.4979341,0,52.74472,-10.14718,6213.306
54.6,-10.18038,-0.4996175,0.01056467,0,0,0,0,0,9.099978,41.13914,0.4996175,0,52.99939,-10.18038,6218.455
54.8,-10.21371,-0.5017205,0.01060914,0,0,0,0,0,9.133311,41.28983,0.5017205,0,53.25573,-10.21371,6228.643
55,-10.24717,-0.5040207,0.01065778,0,0,0,0,0,9.166777,41.44113,0.5040208,0,53.51375,-10.24717,6241.075
55.2,-10.28038,-0.5060965,0.01070167,0,0,0,0,0,9.199978,41.59122,0.5060965,0,53.7704,-10.28038,6250.715
55.4,-10.31371,-0.5083861,0.01075009,0,0,0,0,0,9.233311,41.74191,0.5083861,0,54.02872,-10.31371,6262.795
55.6,-10.34691,-0.5102539,0.01078958,0,0,0,0,0,9.266511,41.892,0.5102539,0,54.28669,-10.34691,6269.61
55.8,-10.38024,-0.5123374,0.01083364,0,0,0,0,0,9.299844,42.04269,0.5123374,0,54.54635,-10.38024,6278.885
56,-10.41371,-0.5147337,0.01088431,0,0,0,0,0,9.333312,42.19399,0.5147337,0,54.80775,-10.41371,6291.785
56.2,-10.44717,-0.5161794,0.01091488,0,0,0,0,0,9.366776,42.34528,0.5161794,0,55.06981,-10.44717,6292.942
56.4,-10.48024,-0.5182126,0.01095787,0,0,0,0,0,9.399843,42.49477,0.5182126,0,55.32943,-10.48024,6301.349
56.6,-10.51371,-0.5204986,0.01100621,0,0,0,0,0,9.433311,42.64607,0.5204986,0,55.59288,-10.51371,6312.494
56.8,-10.54704,-0.5224859,0.01104823,0,0,0,0,0,9.466643,42.79676,0.5224859,0,55.85597,-10.54704,6319.947
57,-10.58024,-0.5242824,0.01108622,0,0,0,0,0,9.499844,42.94685,0.5242825,0,56.11869,-10.58024,6325.039
57.2,-10.61344,-0.526317,0.01112924,0,0,0,0,0,9.533043,43.09694,0.5263171,0,56.38211,-10.61344,6332.881
57.4,-10.64691,-0.5285967,0.01117745,0,0,0,0,0,9.56651,43.24824,0.5285967,0,56.64835,-10.64691,6343.4
57.6,-10.68051,-0.5308704,0.01122553,0,0,0,0,0,9.600109,43.40014,0.5308704,0,56.91636,-10.68051,6353.634
57.8,-10.71357,-0.5327049,0.01126432,0,0,0,0,0,9.633176,43.54962,0.5327049,0,57.18082,-10.71357,6358.751
58,-10.74704,-0.5350681,0.01131429,0,0,0,0,0,9.666643,43.70092,0.535068,0,57.4492,-10.74704,6369.841
58.2,-10.78064,-0.5375947,0.01136772,0,0,0,0,0,9.700243,43.85282,0.5375947,0,57.71937,-10.78064,6382.653
58.4,-10.81384,-0.5396502,0.01141118,0,0,0,0,0,9.733443,44.00291,0.5396503,0,57.98704,-10.81384,6389.93
58.6,-10.84704,-0.5418926,0.0114586,0,0,0,0,0,9.766643,44.153,0.5418926,0,58.25543,-10.84704,6399.283
58.8,-10.88024,-0.5439837,0.01150282,0,0,0,0,0,9.799843,44.30309,0.5439838,0,58.52455,-10.88024,6406.713
59,-10.91371,-0.5463634,0.01155314,0,0,0,0,0,9.833309,44.45438,0.5463634,0,58.79655,-10.91371,6417.261
59.2,-10.94704,-0.5485025,0.01159837,0,0,0,0,0,9.866643,44.60508,0.5485024,0,59.06822,-10.94704,6424.906
59.4,-10.98037,-0.551069,0.01165264,0,0,0,0,0,9.899976,44.75577,0.551069,0,59.34062,-10.98037,6437.41
59.6,-11.01357,-0.5537343,0.011709,0,0,0,0,0,9.933175,44.90586,0.5537342,0,59.61268,-11.01357,6450.971
59.8,-11.04704,-0.5566058,0.01176971,0,0,0,0,0,9.966642,45.05716,0.5566058,0,59.88767,-11.04704,6466.616
60,-11.08037,-0.5591164,0.0118228,0,0,0,0,0,9.999975,45.20785,0.5591164,0,60.16232,-11.08037,6477.969
60.2,-11.11344,-0.5618249,0.01188008,0,0,0,0,0,10.03304,45.35733,0.5618249,0,60.43552,-11.11344,6491.59
60.4,-11.14677,-0.564294,0.01193229,0,0,0,0,0,10.06637,45.50803,0.564294,0,60.71167,-11.14677,6502.138
60.6,-11.18024,-0.5670271,0.01199008,0,0,0,0,0,10.09984,45.65932,0.5670271,0,60.98971,-11.18024,6515.491
60.8,-11.21384,-0.5698059,0.01204884,0,0,0,0,0,10.13344,45.81122,0.5698059,0,61.26963,-11.21384,6529.119
61,-11.24717,-0.5722846,0.01210125,0,0,0,0,0,10.16678,45.96191,0.5722846,0,61.54811,-11.24717,6539.285
61.2,-11.28037,-0.5749039,0.01215664,0,0,0,0,0,10.19998,46.112,0.5749039,0,61.82624,-11.28037,6550.969
61.4,-11.31397,-0.5779612,0.01222129,0,0,0,0,0,10.23357,46.2639,0.5779611,0,62.10851,-11.31397,6567.243
61.6,-11.34717,-0.5807852,0.012281,0,0,0,0,0,10.26678,46.41399,0.5807852,0,62.38822,-11.34717,6580.898
61.8,-11.38024,-0.5833452,0.01233513,0,0,0,0,0,10.29984,46.56348,0.5833452,0,62.66758,-11.38024,6591.466
62,-11.41371,-0.5861932,0.01239536,0,0,0,0,0,10.33331,46.71478,0.5861932,0,62.95111,-11.41371,6604.894
62.2,-11.44691,-0.588911,0.01245282,0,0,0,0,0,10.36651,46.86486,0.5889109,0,63.23318,-11.44691,6616.826
62.4,-11.48037,-0.5916899,0.01251159,0,0,0,0,0,10.39997,47.01616,0.5916899,0,63.51832,-11.48037,6629.119
62.6,-11.51371,-0.5945355,0.01257176,0,0,0,0,0,10.43331,47.16685,0.5945355,0,63.80314,-11.51371,6642.055
62.8,-11.54691,-0.5975083,0.01263462,0,0,0,0,0,10.46651,47.31694,0.5975083,0,64.08763,-11.54691,6656.305
63,-11.58037,-0.6002617,0.01269284,0,0,0,0,0,10.49997,47.46824,0.6002616,0,64.37522,-11.58037,6667.773
63.2,-11.61371,-0.6031328,0.01275355,0,0,0,0,0,10.53331,47.61893,0.6031328,0,64.6625,-11.61371,6680.448
63.4,-11.6469,-0.6061864,0.01281812,0,0,0,0,0,10.56651,47.76902,0.6061864,0,64.94944,-11.6469,6695.031
63.6,-11.68024,-0.6089473,0.0128765,0,0,0,0,0,10.59984,47.91971,0.6089473,0,65.23837,-11.68024,6706.121
63.8,-11.71357,-0.6117828,0.01293646,0,0,0,0,0,10.63317,48.07041,0.6117828,0,65.52814,-11.71357,6717.852
64,-11.74717,-0.6146295,0.01299666,0,0,0,0,0,10.66677,48.22231,0.6146295,0,65.82107,-11.74717,6729.37
64.2,-11.78037,-0.617538,0.01305816,0,0,0,0,0,10.69997,48.37239,0.617538,0,66.11136,-11.78037,6741.615
64.4,-11.8137,-0.6203231,0.01311705,0,0,0,0,0,10.73331,48.52309,0.6203231,0,66.40368,-11.8137,6752.253
64.60001,-11.84717,-0.6233541,0.01318114,0,0,0,0,0,10.76677,48.67439,0.6233541,0,66.69803,-11.84717,6765.302
64.8,-11.88037,-0.6262325,0.01324201,0,0,0,0,0,10.79997,48.82447,0.6262325,0,66.99087,-11.88037,6776.668
65,-11.91357,-0.6289255,0.01329895,0,0,0,0,0,10.83317,48.97456,0.6289255,0,67.28459,-11.91357,6785.849
65.2,-11.9469,-0.6319558,0.01336303,0,0,0,0,0,10.86651,49.12526,0.6319558,0,67.58036,-11.9469,6798.407
65.4,-11.9801,-0.6350163,0.01342775,0,0,0,0,0,10.89971,49.27535,0.6350163,0,67.87581,-11.9801,6811.178
65.60001,-12.0137,-0.6382808,0.01349678,0,0,0,0,0,10.93331,49.42725,0.6382808,0,68.17572,-12.0137,6825.691
65.8,-12.04704,-0.6412273,0.01355908,0,0,0,0,0,10.96664,49.57794,0.6412272,0,68.47414,-12.04704,6836.768
66,-12.08024,-0.6441732,0.01362137,0,0,0,0,0,10.99984,49.72803,0.6441732,0,68.77225,-12.08024,6847.733
66.20001,-12.1137,-0.6472232,0.01368587,0,0,0,0,0,11.03331,49.87932,0.6472232,0,69.07365,-12.1137,6859.45
66.4,-12.14717,-0.650263,0.01375015,0,0,0,0,0,11.06677,50.03062,0.650263,0,69.37598,-12.14717,6870.862
66.60001,-12.18024,-0.6534639,0.01381783,0,0,0,0,0,11.09984,50.18011,0.6534638,0,69.67558,-12.18024,6884.028
66.8,-12.21344,-0.6563951,0.01387981,0,0,0,0,0,11.13304,50.3302,0.6563951,0,69.9773,-12.21344,6894.075
67,-12.24677,-0.6592294,0.01393975,0,0,0,0,0,11.16637,50.48089,0.6592295,0,70.28115,-12.24677,6902.838
67.20001,-12.28037,-0.662589,0.01401079,0,0,0,0,0,11.19997,50.63279,0.6625891,0,70.58838,-12.28037,6916.734
67.4,-12.3137,-0.6660494,0.01408396,0,0,0,0,0,11.23331,50.78348,0.6660494,0,70.89408,-12.3137,6931.634
67.60001,-12.34704,-0.66962,0.01415946,0,0,0,0,0,11.26664,50.93417,0.66962,0,71.20074,-12.34704,6947.456
67.8,-12.38064,-0.6727589,0.01422583,0,0,0,0,0,11.30024,51.08607,0.6727589,0,71.5108,-12.38064,6958.414
68,-12.41384,-0.6760411,0.01429524,0,0,0,0,0,11.33344,51.23616,0.6760411,0,71.81811,-12.41384,6970.907
68.20001,-12.44704,-0.6794034,0.01436634,0,0,0,0,0,11.36664,51.38625,0.6794034,0,72.12638,-12.44704,6984.014
68.4,-12.4801,-0.6824715,0.01443121,0,0,0,0,0,11.3997,51.53574,0.6824715,0,72.43435,-12.4801,6993.98
68.60001,-12.51357,-0.685971,0.01450521,0,0,0,0,0,11.43317,51.68703,0.685971,0,72.74702,-12.51357,7007.897
68.8,-12.5469,-0.6891819,0.0145731,0,0,0,0,0,11.46651,51.83773,0.6891819,0,73.05942,-12.5469,7018.739
69,-12.58037,-0.6926962,0.01464742,0,0,0,0,0,11.49997,51.98903,0.6926962,0,73.37405,-12.58037,7032.368
69.20001,-12.61357,-0.6960868,0.01471911,0,0,0,0,0,11.53317,52.13911,0.6960868,0,73.68716,-12.61357,7044.698
69.4,-12.64704,-0.6996401,0.01479425,0,0,0,0,0,11.56664,52.29041,0.6996401,0,74.00378,-12.64704,7058.276
69.60001,-12.68037,-0.7033594,0.0148729,0,0,0,0,0,11.59997,52.4411,0.7033594,0,74.32014,-12.68037,7073.385
69.8,-12.71357,-0.7067432,0.01494445,0,0,0,0,0,11.63317,52.59119,0.7067432,0,74.63622,-12.71357,7084.985
70,-12.7469,-0.7105431,0.0150248,0,0,0,0,0,11.6665,52.74188,0.710543,0,74.95458,-12.7469,7100.437
70.20001,-12.78024,-0.7140679,0.01509933,0,0,0,0,0,11.69984,52.89257,0.7140679,0,75.27396,-12.78024,7112.907
70.4,-12.81384,-0.718178,0.01518624,0,0,0,0,0,11.73344,53.04448,0.718178,0,75.59693,-12.81384,7130.781
70.60001,-12.84704,-0.721777,0.01526235,0,0,0,0,0,11.76664,53.19456,0.721777,0,75.91708,-12.84704,7143.608
70.8,-12.88037,-0.7254244,0.01533947,0,0,0,0,0,11.79997,53.34526,0.7254245,0,76.23956,-12.88037,7156.592
71,-12.91384,-0.7296627,0.01542909,0,0,0,0,0,11.83344,53.49656,0.7296627,0,76.56438,-12.91384,7175.06
71.20001,-12.94704,-0.7335643,0.01551159,0,0,0,0,0,11.86664,53.64664,0.7335643,0,76.88765,-12.94704,7190.145
71.4,-12.98037,-0.7374206,0.01559314,0,0,0,0,0,11.89997,53.79734,0.7374206,0,77.21327,-12.98037,7204.445
71.60001,-13.01357,-0.7411377,0.01567174,0,0,0,0,0,11.93317,53.94743,0.7411377,0,77.53866,-13.01357,7217.238
71.8,-13.04677,-0.7448823,0.01575092,0,0,0,0,0,11.96637,54.09752,0.7448823,0,77.8651,-13.04677,7230.063
72,-13.08037,-0.7488414,0.01583464,0,0,0,0,0,11.99997,54.24941,0.7488414,0,78.19656,-13.08037,7244.439
72.20001,-13.1137,-0.7527772,0.01591786,0,0,0,0,0,12.0333,54.40011,0.7527772,0,78.52649,-13.1137,7258.527
72.4,-13.1469,-0.7565474,0.01599758,0,0,0,0,0,12.0665,54.5502,0.7565473,0,78.85617,-13.1469,7270.87
72.60001,-13.1805,-0.7607338,0.01608611,0,0,0,0,0,12.1001,54.7021,0.7607338,0,79.19094,-13.1805,7286.67
72.8,-13.21383,-0.7647567,0.01617117,0,0,0,0,0,12.13344,54.85279,0.7647567,0,79.52417,-13.21383,7300.834
73,-13.2469,-0.7686766,0.01625406,0,0,0,0,0,12.1665,55.00228,0.7686766,0,79.85583,-13.2469,7313.958
73.20001,-13.27997,-0.7724813,0.01633452,0,0,0,0,0,12.19957,55.15176,0.7724813,0,80.1886,-13.27997,7325.742
73.4,-13.31357,-0.777032,0.01643074,0,0,0,0,0,12.23317,55.30366,0.777032,0,80.52786,-13.31357,7343.94
73.60001,-13.34703,-0.7814075,0.01652326,0,0,0,0,0,12.26664,55.45496,0.7814075,0,80.86693,-13.34703,7360.295
73.8,-13.38037,-0.785318,0.01660595,0,0,0,0,0,12.29997,55.60565,0.785318,0,81.2058,-13.38037,7372.105
74,-13.41383,-0.7896789,0.01669817,0,0,0,0,0,12.33344,55.75695,0.7896789,0,81.54718,-13.41383,7387.779
74.20001,-13.4473,-0.7943894,0.01679777,0,0,0,0,0,12.3669,55.90824,0.7943894,0,81.88973,-13.4473,7406.433
74.4,-13.4805,-0.7987147,0.01688923,0,0,0,0,0,12.4001,56.05833,0.7987147,0,82.23071,-13.4805,7421.411
74.60001,-13.5137,-0.8029934,0.01697971,0,0,0,0,0,12.4333,56.20842,0.8029934,0,82.57286,-13.5137,7435.682
74.8,-13.54703,-0.8072809,0.01707037,0,0,0,0,0,12.46664,56.35912,0.807281,0,82.91758,-13.54703,7449.661
75,-13.58023,-0.8115079,0.01715975,0,0,0,0,0,12.49984,56.5092,0.8115079,0,83.26209,-13.58023,7462.912
75.20001,-13.6137,-0.81608,0.01725643,0,0,0,0,0,12.5333,56.6605,0.81608,0,83.61057,-13.6137,7478.851
75.4,-13.64717,-0.8206305,0.01735265,0,0,0,0,0,12.56677,56.8118,0.8206305,0,83.96028,-13.64717,7494.3
75.60001,-13.68023,-0.8250776,0.01744669,0,0,0,0,0,12.59984,56.96128,0.8250777,0,84.30701,-13.68023,7508.832
75.8,-13.7137,-0.8294831,0.01753985,0,0,0,0,0,12.6333,57.11258,0.8294832,0,84.65916,-13.7137,7522.389
76,-13.74717,-0.8342063,0.01763972,0,0,0,0,0,12.66677,57.26388,0.8342063,0,85.01256,-13.74717,7538.533
76.20001,-13.78023,-0.8390424,0.01774198,0,0,0,0,0,12.69984,57.41336,0.8390424,0,85.36297,-13.78023,7555.714
76.4,-13.81343,-0.8436394,0.01783919,0,0,0,0,0,12.73304,57.56345,0.8436394,0,85.71602,-13.81343,7570.336
76.60001,-13.8469,-0.8485512,0.01794305,0,0,0,0,0,12.7665,57.71475,0.8485512,0,86.07319,-13.8469,7587.264
76.8,-13.88037,-0.8533857,0.01804528,0,0,0,0,0,12.79997,57.86604,0.8533857,0,86.43162,-13.88037,7603.19
77,-13.9137,-0.8578952,0.01814063,0,0,0,0,0,12.8333,58.01674,0.8578951,0,86.78991,-13.9137,7616.031
77.20001,-13.94703,-0.8628916,0.01824629,0,0,0,0,0,12.86664,58.16743,0.8628916,0,87.14949,-13.94703,7632.891
77.4,-13.98063,-0.8684877,0.01836462,0,0,0,0,0,12.90024,58.31933,0.8684878,0,87.51326,-13.98063,7654.497
77.60001,-14.01383,-0.8736773,0.01847436,0,0,0,0,0,12.93343,58.46942,0.8736773,0,87.87401,-14.01383,7672.507
77.8,-14.04703,-0.8786618,0.01857975,0,0,0,0,0,12.96663,58.61951,0.8786618,0,88.23606,-14.04703,7688.395
78,-14.08037,-0.8839223,0.01869099,0,0,0,0,0,12.99997,58.7702,0.8839223,0,88.60088,-14.08037,7706.259
78.20001,-14.11343,-0.8892966,0.01880463,0,0,0,0,0,13.03303,58.91969,0.8892966,0,88.96411,-14.11343,7725.003
78.4,-14.1469,-0.8943853,0.01891224,0,0,0,0,0,13.0665,59.07098,0.8943853,0,89.33309,-14.1469,7740.593
78.60001,-14.18037,-0.8997576,0.01902584,0,0,0,0,0,13.09997,59.22228,0.8997576,0,89.70343,-14.18037,7758.302
78.8,-14.21343,-0.9052669,0.01914233,0,0,0,0,0,13.13303,59.37177,0.9052669,0,90.07069,-14.21343,7777.193
79,-14.24703,-0.9110502,0.01926463,0,0,0,0,0,13.16663,59.52366,0.9110502,0,90.44527,-14.24703,7797.615
79.20001,-14.2805,-0.9169245,0.01938884,0,0,0,0,0,13.2001,59.67496,0.9169245,0,90.81975,-14.2805,7818.558
79.4,-14.31356,-0.9226153,0.01950917,0,0,0,0,0,13.23317,59.82444,0.9226153,0,91.19114,-14.31356,7837.919
79.60001,-14.34677,-0.9279056,0.01962104,0,0,0,0,0,13.26637,59.97454,0.9279056,0,91.56544,-14.34677,7853.412
79.8,-14.38023,-0.9338179,0.01974606,0,0,0,0,0,13.29983,60.12583,0.9338179,0,91.94415,-14.38023,7873.577
80,-14.41383,-0.9397861,0.01987226,0,0,0,0,0,13.33343,60.27773,0.9397861,0,92.32582,-14.41383,7893.713
80.20001,-14.4469,-0.945195,0.01998664,0,0,0,0,0,13.3665,60.42722,0.945195,0,92.70287,-14.4469,7909.267
80.4,-14.48036,-0.9511372,0.02011229,0,0,0,0,0,13.39997,60.57851,0.9511372,0,93.08592,-14.48036,7928.562
80.60001,-14.51396,-0.9575923,0.02024878,0,0,0,0,0,13.43357,60.73041,0.9575923,0,93.47198,-14.51396,7951.613
80.8,-14.54716,-0.9634829,0.02037334,0,0,0,0,0,13.46677,60.8805,0.9634829,0,93.85492,-14.54716,7969.949
81.00001,-14.58036,-0.9695005,0.02050059,0,0,0,0,0,13.49997,61.03059,0.9695005,0,94.23932,-14.58036,7988.957
81.20001,-14.6137,-0.9757048,0.02063178,0,0,0,0,0,13.5333,61.18128,0.9757047,0,94.62677,-14.6137,8008.992
81.4,-14.64703,-0.9819251,0.02076331,0,0,0,0,0,13.56663,61.33198,0.9819251,0,95.01573,-14.64703,8028.762
81.60001,-14.68036,-0.9880299,0.0208924,0,0,0,0,0,13.59997,61.48267,0.9880299,0,95.40619,-14.68036,8047.195
81.8,-14.7137,-0.9943903,0.02102689,0,0,0,0,0,13.6333,61.63336,0.9943903,0,95.79819,-14.7137,8067.312
82.00001,-14.74703,-1.001155,0.02116993,0,0,0,0,0,13.66663,61.78406,1.001155,0,96.19174,-14.74703,8090.289
82.20001,-14.78023,-1.007462,0.02130329,0,0,0,0,0,13.69983,61.93415,1.007462,0,96.58526,-14.78023,8109.28
82.4,-14.8137,-1.01419,0.02144557,0,0,0,0,0,13.7333,62.08544,1.01419,0,96.9835,-14.8137,8130.994
82.60001,-14.8469,-1.020805,0.02158546,0,0,0,0,0,13.7665,62.23553,1.020805,0,97.38015,-14.8469,8151.633
82.8,-14.8801,-1.027255,0.02172184,0,0,0,0,0,13.7997,62.38562,1.027255,0,97.77837,-14.8801,8170.537
83.00001,-14.9137,-1.034301,0.02187083,0,0,0,0,0,13.8333,62.53752,1.034301,0,98.18303,-14.9137,8193.355
83.20001,-14.94716,-1.041438,0.02202173,0,0,0,0,0,13.86677,62.68882,1.041438,0,98.58771,-14.94716,8216.569
83.4,-14.98036,-1.048168,0.02216405,0,0,0,0,0,13.89997,62.83891,1.048168,0,98.99078,-14.98036,8236.403
83.60001,-15.0137,-1.055365,0.02231623,0,0,0,0,0,13.9333,62.9896,1.055365,0,99.39712,-15.0137,8259.327
83.8,-15.04716,-1.06318,0.02248148,0,0,0,0,0,13.96677,63.14089,1.06318,0,99.80674,-15.04716,8286.473
84.00001,-15.08036,-1.070593,0.02263825,0,0,0,0,0,13.99997,63.29099,1.070593,0,100.2148,-15.08036,8310.278
84.00401,-15.0809,-1.070786,0.02264233,0,0,0,0,0,14.0005,63.2934,1.070786,0,100.2214,-15.0809,8311.228