File: GFBaking/data/XG/XG_Compression_Data/XG_Compression_Specimen4.csv
Time sec,Extension mm,Load kgf,Compressive stress MPa,Cycle Count ,Total Cycle Count ,Repetitions Count ,Marked Data ,PIP Count ,Compressive extension mm,Compressive strain %,Compressive load kgf,Displacement (Strain 1) mm,True strain %,Corrected Position mm,True stress Pa
0,-0.000266666,-0.03197981,0.0008646371,0,0,0,0,0,0,0,0.03197981,0,0,-0.000266666,864.6371
0.2,-0.02506661,-0.03507294,0.0009482659,0,0,0,0,0,0.02479994,0.0958637,0.03507294,0,0.09590968,-0.02506661,947.3569
0.4,-0.06426651,-0.04081869,0.001103614,0,0,0,0,0,0.06399985,0.2473902,0.04081869,0,0.2476967,-0.06426651,1100.883
0.6,-0.09946642,-0.04506523,0.001218427,0,0,0,0,0,0.09919976,0.3834548,0.04506523,0,0.3841919,-0.09946642,1213.755
0.8,-0.1330664,-0.04863165,0.001314852,0,0,0,0,0,0.1327997,0.5133347,0.04863165,0,0.5146568,-0.1330664,1308.103
1,-0.1667996,-0.05186466,0.001402263,0,0,0,0,0,0.1665329,0.6437299,0.05186466,0,0.6458108,-0.1667996,1393.236
1.2,-0.2002662,-0.05563513,0.001504205,0,0,0,0,0,0.1999995,0.7730944,0.05563512,0,0.7760982,-0.2002662,1492.576
1.4,-0.2334661,-0.05859903,0.00158434,0,0,0,0,0,0.2331994,0.901428,0.05859903,0,0.9055155,-0.2334661,1570.058
1.6,-0.2665327,-0.06169448,0.001668032,0,0,0,0,0,0.266266,1.029246,0.06169448,0,1.03458,-0.2665327,1650.864
1.8,-0.3003993,-0.06473561,0.001750255,0,0,0,0,0,0.3001326,1.160157,0.06473561,0,1.166939,-0.3003993,1729.949
2,-0.3337325,-0.06765538,0.001829196,0,0,0,0,0,0.3334658,1.289006,0.06765538,0,1.297386,-0.3337325,1805.618
2.2,-0.3670658,-0.07099915,0.001919602,0,0,0,0,0,0.3667991,1.417855,0.07099915,0,1.428003,-0.3670658,1892.385
2.4,-0.4001324,-0.07428356,0.002008402,0,0,0,0,0,0.3998657,1.545673,0.07428356,0,1.557743,-0.4001324,1977.359
2.6,-0.4335989,-0.07709603,0.002084443,0,0,0,0,0,0.4333323,1.675038,0.07709603,0,1.689225,-0.4335989,2049.528
2.8,-0.4669322,-0.08004815,0.002164259,0,0,0,0,0,0.4666655,1.803887,0.08004815,0,1.820355,-0.4669322,2125.218
3,-0.5001321,-0.08303037,0.002244889,0,0,0,0,0,0.4998654,1.93222,0.08303037,0,1.951132,-0.5001321,2201.513
3.2,-0.5331987,-0.08564584,0.002315604,0,0,0,0,0,0.532932,2.060039,0.08564585,0,2.081554,-0.5331987,2267.901
3.4,-0.5666653,-0.08851954,0.0023933,0,0,0,0,0,0.5663986,2.189403,0.08851954,0,2.213726,-0.5666653,2340.901
3.6,-0.6002652,-0.0915374,0.002474894,0,0,0,0,0,0.5999986,2.319283,0.0915374,0,2.346602,-0.6002652,2417.494
3.8,-0.6334651,-0.09436007,0.00255121,0,0,0,0,0,0.6331985,2.447617,0.09436008,0,2.478069,-0.6334651,2488.766
4,-0.666665,-0.09725884,0.002629584,0,0,0,0,0,0.6663984,2.57595,0.09725884,0,2.609709,-0.666665,2561.847
4.2,-0.7001316,-0.09994636,0.002702246,0,0,0,0,0,0.6998649,2.705315,0.09994636,0,2.742582,-0.7001316,2629.142
4.4,-0.7334649,-0.103139,0.002788566,0,0,0,0,0,0.7331982,2.834164,0.103139,0,2.875102,-0.7334649,2709.533
4.6,-0.7666648,-0.1058778,0.002862615,0,0,0,0,0,0.7663981,2.962498,0.1058778,0,3.007266,-0.7666648,2777.81
4.8,-0.7999981,-0.1088335,0.002942528,0,0,0,0,0,0.7997314,3.091347,0.1088335,0,3.140137,-0.7999981,2851.565
5,-0.833598,-0.111826,0.003023435,0,0,0,0,0,0.8333313,3.221226,0.111826,0,3.27425,-0.833598,2926.044
5.2,-0.8669312,-0.1148461,0.003105091,0,0,0,0,0,0.8666645,3.350075,0.1148461,0,3.407476,-0.8669312,3001.068
5.4,-0.9002645,-0.1176309,0.003180384,0,0,0,0,0,0.8999978,3.478925,0.1176309,0,3.540881,-0.9002645,3069.741
5.6,-0.9334644,-0.1202933,0.003252367,0,0,0,0,0,0.9331977,3.607258,0.1202933,0,3.673928,-0.9334644,3135.045
5.8,-0.966931,-0.1236188,0.003342277,0,0,0,0,0,0.9666644,3.736623,0.1236188,0,3.808224,-0.966931,3217.389
6,-1.000398,-0.1263421,0.003415906,0,0,0,0,0,1.000131,3.865987,0.1263421,0,3.9427,-1.000398,3283.848
6.2,-1.033464,-0.1291586,0.003492057,0,0,0,0,0,1.033198,3.993806,0.1291586,0,4.075747,-1.033464,3352.591
6.4,-1.066664,-0.1321194,0.003572107,0,0,0,0,0,1.066398,4.122139,0.1321194,0,4.209509,-1.066664,3424.86
6.6,-1.100131,-0.1349696,0.00364917,0,0,0,0,0,1.099864,4.251503,0.1349697,0,4.344526,-1.100131,3494.025
6.8,-1.133731,-0.1378829,0.003727935,0,0,0,0,0,1.133464,4.381384,0.1378829,0,4.480266,-1.133731,3564.6
7,-1.166797,-0.1405839,0.003800962,0,0,0,0,0,1.16653,4.509202,0.1405839,0,4.614029,-1.166797,3629.569
7.2,-1.199997,-0.143594,0.003882346,0,0,0,0,0,1.19973,4.637535,0.143594,0,4.748513,-1.199997,3702.301
7.4,-1.233464,-0.14642,0.003958751,0,0,0,0,0,1.233197,4.7669,0.14642,0,4.884261,-1.233464,3770.042
7.6,-1.26693,-0.1494461,0.00404057,0,0,0,0,0,1.266664,4.896265,0.1494461,0,5.020194,-1.26693,3842.733
7.8,-1.299997,-0.1520988,0.004112289,0,0,0,0,0,1.29973,5.024083,0.1520988,0,5.154683,-1.299997,3905.685
8,-1.333197,-0.1550147,0.004191128,0,0,0,0,0,1.33293,5.152416,0.1550147,0,5.289896,-1.333197,3975.183
8.200001,-1.367063,-0.158194,0.004277084,0,0,0,0,0,1.366797,5.283327,0.158194,0,5.428014,-1.367063,4051.112
8.400001,-1.40053,-0.1609412,0.004351363,0,0,0,0,0,1.400263,5.412691,0.1609412,0,5.564687,-1.40053,4115.837
8.6,-1.433596,-0.1638009,0.004428679,0,0,0,0,0,1.43333,5.54051,0.1638009,0,5.699912,-1.433596,4183.308
8.8,-1.466796,-0.1666501,0.004505714,0,0,0,0,0,1.46653,5.668843,0.1666501,0,5.835865,-1.466796,4250.293
9,-1.50013,-0.1695047,0.004582893,0,0,0,0,0,1.499863,5.797692,0.1695047,0,5.972551,-1.50013,4317.191
9.200001,-1.53373,-0.1722687,0.004657622,0,0,0,0,0,1.533463,5.927572,0.1722687,0,6.110519,-1.53373,4381.538
9.400001,-1.566796,-0.1753158,0.004740006,0,0,0,0,0,1.56653,6.055391,0.1753158,0,6.246484,-1.566796,4452.98
9.6,-1.599863,-0.1783129,0.004821039,0,0,0,0,0,1.599596,6.183209,0.1783129,0,6.382634,-1.599863,4522.944
9.8,-1.633596,-0.1807388,0.00488663,0,0,0,0,0,1.633329,6.313604,0.1807388,0,6.521719,-1.633596,4578.107
10,-1.667063,-0.1836631,0.004965692,0,0,0,0,0,1.666796,6.442968,0.1836631,0,6.659897,-1.667063,4645.754
10.2,-1.700129,-0.1860634,0.005030591,0,0,0,0,0,1.699862,6.570786,0.1860634,0,6.796611,-1.700129,4700.042
10.4,-1.733329,-0.1891343,0.005113618,0,0,0,0,0,1.733062,6.699121,0.1891343,0,6.934065,-1.733329,4771.05
10.6,-1.766796,-0.1916767,0.005182357,0,0,0,0,0,1.766529,6.828485,0.1916767,0,7.072814,-1.766796,4828.48
10.8,-1.800262,-0.1937621,0.005238739,0,0,0,0,0,1.799996,6.957849,0.1937621,0,7.211756,-1.800262,4874.236
11,-1.833196,-0.1967093,0.005318424,0,0,0,0,0,1.832929,7.085152,0.1967093,0,7.348673,-1.833196,4941.605
11.2,-1.866529,-0.1991588,0.005384651,0,0,0,0,0,1.866262,7.214001,0.1991588,0,7.487443,-1.866529,4996.202
11.4,-1.900395,-0.2017271,0.005454088,0,0,0,0,0,1.900129,7.344912,0.2017271,0,7.628632,-1.900395,5053.49
11.6,-1.933595,-0.2051211,0.005545853,0,0,0,0,0,1.933329,7.473246,0.2051211,0,7.767235,-1.933595,5131.398
11.8,-1.967062,-0.2077619,0.005617252,0,0,0,0,0,1.966795,7.602611,0.2077619,0,7.907146,-1.967062,5190.194
12,-2.000128,-0.2107109,0.005696984,0,0,0,0,0,1.999862,7.730428,0.2107109,0,8.045577,-2.000128,5256.583
12.2,-2.033462,-0.2136783,0.005777212,0,0,0,0,0,2.033195,7.859278,0.2136783,0,8.185319,-2.033462,5323.165
12.4,-2.066928,-0.2166267,0.005856928,0,0,0,0,0,2.066662,7.988642,0.2166267,0,8.325817,-2.066928,5389.04
12.6,-2.100128,-0.2187859,0.005915306,0,0,0,0,0,2.099862,8.116976,0.2187859,0,8.465389,-2.100128,5435.162
12.8,-2.133195,-0.2213738,0.005985277,0,0,0,0,0,2.132928,8.244794,0.2213738,0,8.604596,-2.133195,5491.803
13,-2.166795,-0.2240172,0.006056746,0,0,0,0,0,2.166528,8.374674,0.2240172,0,8.746246,-2.166795,5549.514
13.2,-2.200395,-0.2259888,0.006110053,0,0,0,0,0,2.200128,8.504554,0.2259888,0,8.888098,-2.200395,5590.42
13.4,-2.233461,-0.2288505,0.006187422,0,0,0,0,0,2.233195,8.632372,0.2288505,0,9.027895,-2.233461,5653.301
13.6,-2.266528,-0.2304376,0.006230333,0,0,0,0,0,2.266261,8.76019,0.2304376,0,9.167888,-2.266528,5684.544
13.8,-2.300261,-0.2334115,0.006310738,0,0,0,0,0,2.299994,8.890585,0.2334115,0,9.310903,-2.300261,5749.676
14,-2.333461,-0.2360379,0.00638175,0,0,0,0,0,2.333194,9.018919,0.2360379,0,9.45186,-2.333461,5806.185
14.2,-2.366528,-0.2386934,0.006453547,0,0,0,0,0,2.366261,9.146738,0.2386934,0,9.592449,-2.366528,5863.258
14.4,-2.399994,-0.2417292,0.006535623,0,0,0,0,0,2.399728,9.276101,0.2417292,0,9.734937,-2.399994,5929.372
14.6,-2.433861,-0.2437356,0.006589872,0,0,0,0,0,2.433594,9.407012,0.2437356,0,9.879337,-2.433861,5969.962
14.8,-2.466927,-0.2462436,0.006657681,0,0,0,0,0,2.46666,9.53483,0.2462436,0,10.02053,-2.466927,6022.883
15,-2.50026,-0.2486729,0.00672336,0,0,0,0,0,2.499994,9.663679,0.2486729,0,10.16306,-2.50026,6073.636
15.2,-2.533461,-0.2516709,0.006804418,0,0,0,0,0,2.533194,9.792013,0.2516709,0,10.30522,-2.533461,6138.129
15.4,-2.566927,-0.2538918,0.006864465,0,0,0,0,0,2.56666,9.921378,0.2538918,0,10.44873,-2.566927,6183.416
15.6,-2.60026,-0.2563282,0.006930336,0,0,0,0,0,2.599994,10.05023,0.2563282,0,10.59187,-2.60026,6233.822
15.8,-2.63346,-0.2583278,0.0069844,0,0,0,0,0,2.633194,10.17856,0.2583278,0,10.73465,-2.63346,6273.489
16,-2.666527,-0.2604619,0.007042101,0,0,0,0,0,2.66626,10.30638,0.2604619,0,10.87705,-2.666527,6316.315
16.2,-2.700127,-0.2626664,0.007101703,0,0,0,0,0,2.69986,10.43626,0.2626664,0,11.02196,-2.700127,6360.55
16.4,-2.733727,-0.2654531,0.007177047,0,0,0,0,0,2.73346,10.56614,0.2654531,0,11.16708,-2.733727,6418.71
16.6,-2.766793,-0.2674308,0.007230517,0,0,0,0,0,2.766527,10.69396,0.2674308,0,11.3101,-2.766793,6457.289
16.8,-2.799993,-0.2692815,0.007280555,0,0,0,0,0,2.799726,10.82229,0.2692815,0,11.45391,-2.799993,6492.632
17,-2.833593,-0.2720279,0.00735481,0,0,0,0,0,2.833327,10.95217,0.2720279,0,11.59966,-2.833593,6549.299
17.2,-2.866793,-0.2735491,0.007395938,0,0,0,0,0,2.866526,11.0805,0.2735491,0,11.74388,-2.866793,6576.431
17.4,-2.899993,-0.2756009,0.007451414,0,0,0,0,0,2.899726,11.20884,0.2756009,0,11.88831,-2.899993,6616.197
17.6,-2.933193,-0.2785835,0.007532054,0,0,0,0,0,2.932926,11.33717,0.2785835,0,12.03294,-2.933193,6678.132
17.8,-2.967059,-0.2801307,0.007573885,0,0,0,0,0,2.966793,11.46808,0.2801307,0,12.1807,-2.967059,6705.305
18,-3.000393,-0.281748,0.007617611,0,0,0,0,0,3.000126,11.59693,0.281748,0,12.32635,-3.000393,6734.202
18.2,-3.033726,-0.2836567,0.007669217,0,0,0,0,0,3.033459,11.72578,0.2836567,0,12.47221,-3.033726,6769.941
18.4,-3.066926,-0.2853449,0.00771486,0,0,0,0,0,3.066659,11.85411,0.2853449,0,12.61769,-3.066926,6800.332
18.6,-3.100259,-0.2866246,0.007749461,0,0,0,0,0,3.099993,11.98296,0.2866246,0,12.76398,-3.100259,6820.846
18.8,-3.133459,-0.2892091,0.007819337,0,0,0,0,0,3.133193,12.1113,0.2892091,0,12.90989,-3.133459,6872.313
19,-3.166792,-0.2909798,0.007867211,0,0,0,0,0,3.166525,12.24014,0.2909798,0,13.0566,-3.166792,6904.253
19.2,-3.199859,-0.2921662,0.007899289,0,0,0,0,0,3.199592,12.36796,0.2921662,0,13.20235,-3.199859,6922.308
19.4,-3.233459,-0.2946336,0.007966,0,0,0,0,0,3.233192,12.49784,0.2946336,0,13.35068,-3.233459,6970.421
19.6,-3.267059,-0.2964664,0.008015553,0,0,0,0,0,3.266792,12.62772,0.2964664,0,13.49921,-3.267059,7003.372
19.8,-3.300125,-0.2981648,0.008061472,0,0,0,0,0,3.299859,12.75554,0.2981648,0,13.64561,-3.300125,7033.188
20,-3.333192,-0.2998945,0.008108237,0,0,0,0,0,3.332925,12.88336,0.2998945,0,13.79223,-3.333192,7063.623
20.2,-3.366925,-0.3018105,0.008160042,0,0,0,0,0,3.366658,13.01375,0.3018105,0,13.94202,-3.366925,7098.114
20.4,-3.400258,-0.3036591,0.008210021,0,0,0,0,0,3.399992,13.1426,0.3036591,0,14.09025,-3.400258,7131.01
20.6,-3.433325,-0.3050481,0.008247576,0,0,0,0,0,3.433058,13.27042,0.3050481,0,14.23752,-3.433325,7153.087
20.8,-3.466658,-0.3066098,0.0082898,0,0,0,0,0,3.466392,13.39927,0.3066098,0,14.3862,-3.466658,7179.027
21,-3.500391,-0.3086232,0.008344236,0,0,0,0,0,3.500125,13.52967,0.3086232,0,14.53688,-3.500391,7215.289
21.2,-3.533458,-0.3103107,0.008389859,0,0,0,0,0,3.533191,13.65749,0.3103107,0,14.68481,-3.533458,7244.015
21.4,-3.566925,-0.312079,0.008437669,0,0,0,0,0,3.566658,13.78685,0.312079,0,14.83475,-3.566925,7274.38
21.6,-3.600258,-0.3138976,0.00848684,0,0,0,0,0,3.599991,13.9157,0.3138976,0,14.98431,-3.600258,7305.837
21.8,-3.633458,-0.3153501,0.008526109,0,0,0,0,0,3.633191,14.04403,0.3153501,0,15.1335,-3.633458,7328.7
22,-3.666924,-0.3165499,0.00855855,0,0,0,0,0,3.666657,14.1734,0.3165499,0,15.28412,-3.666924,7345.513
22.2,-3.700124,-0.3181485,0.008601769,0,0,0,0,0,3.699857,14.30173,0.3181485,0,15.43375,-3.700124,7371.568
22.4,-3.733058,-0.3195804,0.008640485,0,0,0,0,0,3.732791,14.42903,0.3195804,0,15.58241,-3.733058,7393.746
22.6,-3.766791,-0.3209979,0.008678809,0,0,0,0,0,3.766524,14.55943,0.3209979,0,15.73491,-3.766791,7415.224
22.8,-3.800391,-0.3226473,0.008723403,0,0,0,0,0,3.800124,14.68931,0.3226472,0,15.88704,-3.800391,7441.996
23,-3.833591,-0.3243574,0.008769642,0,0,0,0,0,3.833324,14.81764,0.3243575,0,16.03758,-3.833591,7470.188
23.2,-3.866524,-0.3255375,0.008801546,0,0,0,0,0,3.866257,14.94495,0.3255375,0,16.18714,-3.866524,7486.16
23.4,-3.900257,-0.3270234,0.008841722,0,0,0,0,0,3.899991,15.07534,0.3270234,0,16.34057,-3.900257,7508.802
23.6,-3.93359,-0.3284787,0.008881068,0,0,0,0,0,3.933324,15.20419,0.3284787,0,16.4924,-3.93359,7530.774
23.8,-3.966657,-0.3297574,0.00891564,0,0,0,0,0,3.96639,15.33201,0.3297574,0,16.64325,-3.966657,7548.693
24,-3.999857,-0.3310156,0.008949658,0,0,0,0,0,3.99959,15.46034,0.3310156,0,16.79494,-3.999857,7566.01
24.2,-4.03359,-0.3325689,0.008991653,0,0,0,0,0,4.033323,15.59074,0.3325689,0,16.9493,-4.03359,7589.788
24.4,-4.067057,-0.3340068,0.00903053,0,0,0,0,0,4.06679,15.7201,0.3340068,0,17.10268,-4.067057,7610.922
24.6,-4.10039,-0.3352056,0.009062944,0,0,0,0,0,4.100123,15.84895,0.3352056,0,17.25568,-4.10039,7626.562
24.8,-4.13359,-0.3364798,0.009097393,0,0,0,0,0,4.133324,15.97728,0.3364798,0,17.4083,-4.13359,7643.876
25,-4.16679,-0.3377073,0.009130581,0,0,0,0,0,4.166523,16.10562,0.3377073,0,17.56115,-4.16679,7660.045
25.2,-4.200256,-0.3388863,0.009162457,0,0,0,0,0,4.19999,16.23498,0.3388863,0,17.71547,-4.200256,7674.933
25.4,-4.233456,-0.3399355,0.009190826,0,0,0,0,0,4.23319,16.36332,0.3399355,0,17.8688,-4.233456,7686.902
25.6,-4.26639,-0.341126,0.009223012,0,0,0,0,0,4.266123,16.49062,0.341126,0,18.02112,-4.26639,7702.081
25.8,-4.300256,-0.3423942,0.009257301,0,0,0,0,0,4.299989,16.62153,0.3423942,0,18.178,-4.300256,7718.596
26,-4.333723,-0.3433945,0.009284347,0,0,0,0,0,4.333457,16.75089,0.3433945,0,18.33328,-4.333723,7729.136
26.2,-4.366923,-0.3444542,0.009312997,0,0,0,0,0,4.366656,16.87923,0.3444542,0,18.48755,-4.366923,7741.034
26.4,-4.399989,-0.3453593,0.009337467,0,0,0,0,0,4.399723,17.00705,0.3453593,0,18.64145,-4.399989,7749.44
26.6,-4.433589,-0.3465322,0.009369181,0,0,0,0,0,4.433322,17.13692,0.3465322,0,18.79806,-4.433589,7763.591
26.8,-4.466922,-0.3474949,0.009395209,0,0,0,0,0,4.466656,17.26577,0.3474949,0,18.95368,-4.466922,7773.053
27,-4.499856,-0.348398,0.009419625,0,0,0,0,0,4.499589,17.39308,0.348398,0,19.10767,-4.499856,7781.262
27.2,-4.533189,-0.3494017,0.009446762,0,0,0,0,0,4.532922,17.52192,0.3494017,0,19.26377,-4.533189,7791.507
27.4,-4.567055,-0.3504595,0.009475362,0,0,0,0,0,4.566789,17.65284,0.3504595,0,19.42262,-4.567055,7802.692
27.6,-4.600389,-0.3513655,0.009499856,0,0,0,0,0,4.600122,17.78169,0.3513654,0,19.57921,-4.600389,7810.621
27.8,-4.633589,-0.3522186,0.009522921,0,0,0,0,0,4.633322,17.91002,0.3522186,0,19.73542,-4.633589,7817.364
28,-4.666789,-0.353044,0.00954524,0,0,0,0,0,4.666522,18.03835,0.353044,0,19.89188,-4.666789,7823.436
28.2,-4.699989,-0.3538619,0.009567353,0,0,0,0,0,4.699722,18.16669,0.3538619,0,20.04858,-4.699989,7829.282
28.4,-4.733589,-0.3545858,0.009586926,0,0,0,0,0,4.733322,18.29657,0.3545858,0,20.20742,-4.733589,7832.847
28.6,-4.766788,-0.3553025,0.009606301,0,0,0,0,0,4.766521,18.4249,0.3553025,0,20.36461,-4.766788,7836.35
28.8,-4.799988,-0.3562492,0.009631898,0,0,0,0,0,4.799722,18.55323,0.3562492,0,20.52206,-4.799988,7844.869
29,-4.833455,-0.3566624,0.009643069,0,0,0,0,0,4.833188,18.6826,0.3566624,0,20.68101,-4.833455,7841.493
29.2,-4.867055,-0.3572959,0.009660196,0,0,0,0,0,4.866788,18.81248,0.3572959,0,20.84086,-4.867055,7842.874
29.4,-4.900122,-0.3579497,0.009677873,0,0,0,0,0,4.899855,18.9403,0.3579497,0,20.99842,-4.900122,7844.855
29.6,-4.933188,-0.3583026,0.009687415,0,0,0,0,0,4.932921,19.06812,0.3583026,0,21.15623,-4.933188,7840.208
29.8,-4.966921,-0.3588777,0.009702965,0,0,0,0,0,4.966654,19.19851,0.3588777,0,21.31748,-4.966921,7840.14
30,-5.000121,-0.3594234,0.009717719,0,0,0,0,0,4.999854,19.32684,0.3594234,0,21.47643,-5.000121,7839.59
30.2,-5.033321,-0.359762,0.009726874,0,0,0,0,0,5.033054,19.45518,0.359762,0,21.63564,-5.033321,7834.493
30.4,-5.066521,-0.3601101,0.009736284,0,0,0,0,0,5.066254,19.58351,0.36011,0,21.79509,-5.066521,7829.578
30.6,-5.100388,-0.3607817,0.009754444,0,0,0,0,0,5.100121,19.71442,0.3607817,0,21.95802,-5.100388,7831.411
30.8,-5.133721,-0.3612654,0.009767522,0,0,0,0,0,5.133454,19.84327,0.3612655,0,22.11864,-5.133721,7829.326
31,-5.166921,-0.3618856,0.00978429,0,0,0,0,0,5.166655,19.97161,0.3618856,0,22.27887,-5.166921,7830.21
31.2,-5.200254,-0.3620151,0.00978779,0,0,0,0,0,5.199987,20.10045,0.3620151,0,22.44,-5.200254,7820.4
31.4,-5.233454,-0.3627174,0.00980678,0,0,0,0,0,5.233188,20.22879,0.3627174,0,22.60075,-5.233454,7822.987
31.6,-5.266921,-0.3627942,0.009808853,0,0,0,0,0,5.266654,20.35815,0.3627942,0,22.76305,-5.266921,7811.952
31.8,-5.30012,-0.3626148,0.009804005,0,0,0,0,0,5.299854,20.48648,0.3626148,0,22.92432,-5.30012,7795.509
32,-5.333187,-0.3631959,0.009819716,0,0,0,0,0,5.33292,20.6143,0.3631959,0,23.0852,-5.333187,7795.45
32.2,-5.366787,-0.3634134,0.009825598,0,0,0,0,0,5.36652,20.74418,0.3634135,0,23.24894,-5.366787,7787.357
32.4,-5.400387,-0.3642262,0.009847571,0,0,0,0,0,5.40012,20.87406,0.3642262,0,23.41294,-5.400387,7791.983
32.6,-5.433453,-0.3643305,0.009850391,0,0,0,0,0,5.433187,21.00188,0.3643305,0,23.57461,-5.433453,7781.624
32.8,-5.466653,-0.3644442,0.009853465,0,0,0,0,0,5.466387,21.13022,0.3644442,0,23.7372,-5.466653,7771.407
33,-5.50012,-0.3644151,0.009852679,0,0,0,0,0,5.499853,21.25958,0.3644151,0,23.90136,-5.50012,7758.041
33.2,-5.533587,-0.3646525,0.009859097,0,0,0,0,0,5.53332,21.38894,0.3646525,0,24.06578,-5.533587,7750.341
33.4,-5.566787,-0.3650578,0.009870055,0,0,0,0,0,5.56652,21.51728,0.3650578,0,24.22917,-5.566787,7746.288
33.6,-5.599853,-0.3652008,0.009873923,0,0,0,0,0,5.599586,21.6451,0.3652008,0,24.39216,-5.599853,7736.703
33.8,-5.63372,-0.3656725,0.009886676,0,0,0,0,0,5.633453,21.77601,0.3656725,0,24.55938,-5.63372,7733.753
34,-5.66692,-0.3660148,0.009895931,0,0,0,0,0,5.666653,21.90434,0.3660148,0,24.72357,-5.66692,7728.293
34.2,-5.700253,-0.3666048,0.009911882,0,0,0,0,0,5.699986,22.03319,0.3666048,0,24.8887,-5.700253,7727.978
34.4,-5.73332,-0.3669339,0.009920781,0,0,0,0,0,5.733053,22.16101,0.3669339,0,25.05277,-5.73332,7722.235
34.6,-5.766786,-0.3675974,0.009938719,0,0,0,0,0,5.76652,22.29037,0.3675974,0,25.2191,-5.766786,7723.341
34.8,-5.800119,-0.3679276,0.009947646,0,0,0,0,0,5.799853,22.41922,0.3679276,0,25.38505,-5.800119,7717.462
35,-5.833586,-0.3684189,0.009960931,0,0,0,0,0,5.833319,22.54859,0.3684189,0,25.55194,-5.833586,7714.881
35.2,-5.866652,-0.3687104,0.009968811,0,0,0,0,0,5.866385,22.6764,0.3687104,0,25.7171,-5.866652,7708.243
35.4,-5.900252,-0.3693228,0.009985368,0,0,0,0,0,5.899986,22.80628,0.3693228,0,25.88521,-5.900252,7708.077
35.6,-5.933719,-0.3695379,0.009991186,0,0,0,0,0,5.933452,22.93565,0.3695379,0,26.05294,-5.933719,7699.642
35.8,-5.966785,-0.3701718,0.01000832,0,0,0,0,0,5.966519,23.06347,0.3701718,0,26.21894,-5.966785,7700.056
36,-5.999852,-0.3704803,0.01001666,0,0,0,0,0,5.999585,23.19128,0.3704803,0,26.38521,-5.999852,7693.672
36.2,-6.033585,-0.3711873,0.01003578,0,0,0,0,0,6.033319,23.32168,0.3711873,0,26.55512,-6.033585,7695.266
36.4,-6.066918,-0.3719591,0.01005665,0,0,0,0,0,6.066652,23.45053,0.3719591,0,26.7233,-6.066918,7698.31
36.6,-6.099985,-0.3722684,0.01006501,0,0,0,0,0,6.099718,23.57835,0.3722684,0,26.89041,-6.099985,7691.846
36.8,-6.133318,-0.37292,0.01008262,0,0,0,0,0,6.133052,23.7072,0.37292,0,27.05916,-6.133318,7692.317
37,-6.166918,-0.3735817,0.01010051,0,0,0,0,0,6.166651,23.83708,0.3735816,0,27.22954,-6.166918,7692.848
37.2,-6.200385,-0.3742412,0.01011835,0,0,0,0,0,6.200118,23.96644,0.3742412,0,27.39954,-6.200385,7693.339
37.4,-6.233451,-0.3749143,0.01013655,0,0,0,0,0,6.233185,24.09426,0.3749143,0,27.56779,-6.233451,7694.221
37.6,-6.266651,-0.3754096,0.01014994,0,0,0,0,0,6.266385,24.22259,0.3754096,0,27.737,-6.266651,7691.359
37.8,-6.300251,-0.3758808,0.01016268,0,0,0,0,0,6.299984,24.35247,0.3758808,0,27.90854,-6.300251,7687.815
38,-6.333584,-0.3765229,0.01018004,0,0,0,0,0,6.333318,24.48132,0.376523,0,28.07901,-6.333584,7687.831
38.2,-6.366785,-0.3770306,0.01019376,0,0,0,0,0,6.366518,24.60966,0.3770306,0,28.2491,-6.366785,7685.113
38.4,-6.399984,-0.3776779,0.01021126,0,0,0,0,0,6.399718,24.73799,0.3776779,0,28.41947,-6.399984,7685.202
38.6,-6.433584,-0.3783564,0.01022961,0,0,0,0,0,6.433318,24.86787,0.3783564,0,28.59219,-6.433584,7685.724
38.8,-6.467051,-0.3788717,0.01024354,0,0,0,0,0,6.466784,24.99723,0.3788717,0,28.76452,-6.467051,7682.94
39,-6.500117,-0.3795416,0.01026165,0,0,0,0,0,6.499851,25.12505,0.3795416,0,28.93508,-6.500117,7683.409
39.2,-6.533317,-0.3801266,0.01027747,0,0,0,0,0,6.533051,25.25339,0.3801266,0,29.10663,-6.533317,7682.06
39.4,-6.566918,-0.3807207,0.01029353,0,0,0,0,0,6.566651,25.38327,0.3807207,0,29.28054,-6.566918,7680.699
39.6,-6.60025,-0.3816288,0.01031809,0,0,0,0,0,6.599984,25.51211,0.3816288,0,29.45337,-6.60025,7685.725
39.8,-6.633317,-0.3820309,0.01032896,0,0,0,0,0,6.633051,25.63993,0.3820309,0,29.62511,-6.633317,7680.619
40,-6.666517,-0.3832249,0.01036124,0,0,0,0,0,6.66625,25.76826,0.3832249,0,29.79784,-6.666517,7691.328
40.2,-6.70025,-0.3835549,0.01037016,0,0,0,0,0,6.699984,25.89866,0.3835549,0,29.97366,-6.70025,7684.428
40.4,-6.733717,-0.3841618,0.01038657,0,0,0,0,0,6.73345,26.02803,0.3841618,0,30.14839,-6.733717,7683.15
40.6,-6.76705,-0.3851114,0.01041224,0,0,0,0,0,6.766784,26.15688,0.3851114,0,30.32273,-6.76705,7688.726
40.8,-6.800117,-0.3854803,0.01042222,0,0,0,0,0,6.79985,26.28469,0.3854803,0,30.49597,-6.800117,7682.771
41,-6.83345,-0.3860768,0.01043835,0,0,0,0,0,6.833183,26.41354,0.3860768,0,30.67092,-6.83345,7681.208
41.2,-6.86705,-0.3864984,0.01044974,0,0,0,0,0,6.866783,26.54342,0.3864984,0,30.84757,-6.86705,7676.025
41.4,-6.899983,-0.386867,0.01045971,0,0,0,0,0,6.899716,26.67072,0.386867,0,31.02103,-6.899983,7670.031
41.6,-6.933183,-0.3874905,0.01047657,0,0,0,0,0,6.932916,26.79906,0.3874905,0,31.19619,-6.933183,7668.946
41.8,-6.966916,-0.3879634,0.01048935,0,0,0,0,0,6.96665,26.92945,0.3879634,0,31.37448,-6.966916,7664.628
42,-7.000383,-0.388526,0.01050457,0,0,0,0,0,7.000117,27.05882,0.388526,0,31.55168,-7.000383,7662.154
42.2,-7.03345,-0.3891656,0.01052186,0,0,0,0,0,7.033183,27.18664,0.3891656,0,31.72707,-7.03345,7661.319
42.4,-7.066649,-0.3896067,0.01053378,0,0,0,0,0,7.066382,27.31497,0.3896067,0,31.90347,-7.066649,7656.485
42.6,-7.100116,-0.3900594,0.01054602,0,0,0,0,0,7.099849,27.44433,0.3900594,0,32.08161,-7.100116,7651.737
42.8,-7.133449,-0.3907674,0.01056517,0,0,0,0,0,7.133183,27.57318,0.3907674,0,32.25936,-7.133449,7652.013
43,-7.166649,-0.3912125,0.0105772,0,0,0,0,0,7.166382,27.70152,0.3912125,0,32.4367,-7.166649,7647.155
43.2,-7.199982,-0.3916433,0.01058885,0,0,0,0,0,7.199716,27.83037,0.3916433,0,32.61508,-7.199982,7641.932
43.4,-7.233716,-0.3922295,0.0106047,0,0,0,0,0,7.233449,27.96076,0.3922296,0,32.79593,-7.233716,7639.543
43.6,-7.267049,-0.3929686,0.01062468,0,0,0,0,0,7.266782,28.08961,0.3929686,0,32.97494,-7.267049,7640.248
43.8,-7.300382,-0.3935063,0.01063922,0,0,0,0,0,7.300115,28.21846,0.3935063,0,33.15428,-7.300382,7636.993
44,-7.333449,-0.3940518,0.01065396,0,0,0,0,0,7.333182,28.34628,0.3940518,0,33.33251,-7.333449,7633.962
44.2,-7.366782,-0.3951147,0.0106827,0,0,0,0,0,7.366515,28.47513,0.3951147,0,33.51249,-7.366782,7640.79
44.4,-7.400115,-0.3956138,0.0106962,0,0,0,0,0,7.399848,28.60398,0.3956138,0,33.6928,-7.400115,7636.659
44.6,-7.433448,-0.3962231,0.01071267,0,0,0,0,0,7.433182,28.73282,0.3962231,0,33.87343,-7.433448,7634.618
44.8,-7.466515,-0.3970108,0.01073397,0,0,0,0,0,7.466248,28.86064,0.3970108,0,34.05295,-7.466515,7636.076
45,-7.500115,-0.3977808,0.01075479,0,0,0,0,0,7.499848,28.99052,0.3977808,0,34.23568,-7.500115,7636.917
45.2,-7.533581,-0.3983997,0.01077152,0,0,0,0,0,7.533315,29.11989,0.3983997,0,34.41803,-7.533581,7634.865
45.4,-7.566648,-0.399071,0.01078967,0,0,0,0,0,7.566381,29.24771,0.399071,0,34.59852,-7.566648,7633.94
45.6,-7.600115,-0.3999105,0.01081237,0,0,0,0,0,7.599848,29.37707,0.3999105,0,34.78153,-7.600115,7636.01
45.8,-7.633581,-0.4004735,0.01082759,0,0,0,0,0,7.633315,29.50644,0.4004735,0,34.96488,-7.633581,7632.753
46,-7.666915,-0.4013731,0.01085191,0,0,0,0,0,7.666648,29.63528,0.4013731,0,35.14782,-7.666915,7635.917
46.2,-7.699981,-0.4017489,0.01086207,0,0,0,0,0,7.699715,29.7631,0.401749,0,35.32964,-7.699981,7629.183
46.4,-7.733314,-0.4023706,0.01087888,0,0,0,0,0,7.733047,29.89195,0.4023706,0,35.51326,-7.733314,7626.971
46.6,-7.766915,-0.403346,0.01090525,0,0,0,0,0,7.766648,30.02183,0.403346,0,35.69869,-7.766915,7631.296
46.8,-7.800381,-0.403831,0.01091836,0,0,0,0,0,7.800114,30.15119,0.4038309,0,35.88372,-7.800381,7626.347
47,-7.833447,-0.4044404,0.01093484,0,0,0,0,0,7.833181,30.27901,0.4044404,0,36.06688,-7.833447,7623.879
47.2,-7.866914,-0.4053374,0.01095909,0,0,0,0,0,7.866647,30.40838,0.4053374,0,36.2526,-7.866914,7626.612
47.4,-7.900247,-0.4060381,0.01097804,0,0,0,0,0,7.899981,30.53723,0.4060381,0,36.43792,-7.900247,7625.651
47.6,-7.933581,-0.4065215,0.01099111,0,0,0,0,0,7.933315,30.66608,0.4065215,0,36.62359,-7.933581,7620.566
47.8,-7.966781,-0.4071818,0.01100896,0,0,0,0,0,7.966515,30.79441,0.4071818,0,36.80886,-7.966781,7618.817
48,-7.999848,-0.4077171,0.01102343,0,0,0,0,0,7.999581,30.92223,0.4077171,0,36.99372,-7.999848,7614.741
48.2,-8.033447,-0.4083314,0.01104004,0,0,0,0,0,8.03318,31.05211,0.4083314,0,37.18192,-8.033447,7611.877
48.4,-8.067047,-0.409023,0.01105874,0,0,0,0,0,8.066781,31.18199,0.409023,0,37.37047,-8.067047,7610.405
48.6,-8.100114,-0.4095326,0.01107252,0,0,0,0,0,8.099848,31.30981,0.4095325,0,37.55638,-8.100114,7605.734
48.8,-8.133314,-0.4100499,0.0110865,0,0,0,0,0,8.133047,31.43814,0.4100499,0,37.74338,-8.133314,7601.114
49,-8.166781,-0.4106588,0.01110297,0,0,0,0,0,8.166514,31.56751,0.4106588,0,37.93224,-8.166781,7598.038
49.2,-8.200247,-0.4112351,0.01111855,0,0,0,0,0,8.19998,31.69687,0.4112351,0,38.12146,-8.200247,7594.317
49.4,-8.233313,-0.4117141,0.0111315,0,0,0,0,0,8.233047,31.82469,0.4117141,0,38.30877,-8.233313,7588.935
49.6,-8.266646,-0.4123609,0.01114899,0,0,0,0,0,8.266379,31.95354,0.4123609,0,38.49794,-8.266646,7586.493
49.8,-8.30038,-0.4127966,0.01116077,0,0,0,0,0,8.300113,32.08393,0.4127966,0,38.68975,-8.30038,7579.955
50,-8.333713,-0.413624,0.01118314,0,0,0,0,0,8.333447,32.21278,0.413624,0,38.87965,-8.333713,7580.738
50.2,-8.366914,-0.4142179,0.0111992,0,0,0,0,0,8.366647,32.34112,0.4142179,0,39.06915,-8.366914,7577.251
50.4,-8.400247,-0.415562,0.01123554,0,0,0,0,0,8.39998,32.46996,0.415562,0,39.25977,-8.400247,7587.361
50.6,-8.433579,-0.4164206,0.01125875,0,0,0,0,0,8.433313,32.59881,0.4164206,0,39.45076,-8.433579,7588.531
50.8,-8.466912,-0.4168854,0.01127132,0,0,0,0,0,8.466646,32.72766,0.4168854,0,39.64211,-8.466912,7582.478
51,-8.500113,-0.4174043,0.01128535,0,0,0,0,0,8.499846,32.856,0.4174043,0,39.83306,-8.500113,7577.433
51.2,-8.53318,-0.4187932,0.0113229,0,0,0,0,0,8.532912,32.98381,0.4187932,0,40.0236,-8.53318,7588.175
51.4,-8.566779,-0.4194833,0.01134156,0,0,0,0,0,8.566513,33.11369,0.4194833,0,40.21759,-8.566779,7585.948
51.6,-8.600379,-0.4201672,0.01136005,0,0,0,0,0,8.600113,33.24358,0.4201672,0,40.41196,-8.600379,7583.562
51.8,-8.633446,-0.4207542,0.01137592,0,0,0,0,0,8.633179,33.37139,0.4207542,0,40.60361,-8.633446,7579.615
52,-8.666646,-0.4215218,0.01139667,0,0,0,0,0,8.666379,33.49973,0.4215218,0,40.79641,-8.666646,7578.817
52.2,-8.700112,-0.4223842,0.01141999,0,0,0,0,0,8.699845,33.62909,0.4223842,0,40.99113,-8.700112,7579.549
52.4,-8.733446,-0.4228941,0.01143377,0,0,0,0,0,8.733178,33.75794,0.4228941,0,41.18545,-8.733446,7573.968
52.6,-8.766646,-0.423769,0.01145743,0,0,0,0,0,8.766378,33.88627,0.423769,0,41.37938,-8.766646,7574.933
52.8,-8.799845,-0.4243886,0.01147418,0,0,0,0,0,8.799579,34.01461,0.4243886,0,41.57368,-8.799845,7571.284
53,-8.833579,-0.4253312,0.01149966,0,0,0,0,0,8.833312,34.145,0.4253312,0,41.77149,-8.833579,7573.104
53.2,-8.867045,-0.4259807,0.01151723,0,0,0,0,0,8.866777,34.27436,0.4259807,0,41.96811,-8.867045,7569.77
53.4,-8.900245,-0.4267126,0.01153701,0,0,0,0,0,8.899979,34.4027,0.4267126,0,42.16356,-8.900245,7567.97
53.6,-8.933579,-0.4275248,0.01155897,0,0,0,0,0,8.933312,34.53155,0.4275247,0,42.36019,-8.933579,7567.48
53.8,-8.966778,-0.4283505,0.0115813,0,0,0,0,0,8.966511,34.65988,0.4283505,0,42.5564,-8.966778,7567.234
54,-9.000111,-0.4290353,0.01159981,0,0,0,0,0,8.999845,34.78873,0.4290353,0,42.75379,-9.000111,7564.386
54.2,-9.033444,-0.4300202,0.01162644,0,0,0,0,0,9.033178,34.91758,0.4300202,0,42.95157,-9.033444,7566.77
54.4,-9.066645,-0.430743,0.01164599,0,0,0,0,0,9.066379,35.04592,0.430743,0,43.14896,-9.066645,7564.543
54.6,-9.100111,-0.4313313,0.01166189,0,0,0,0,0,9.099844,35.17528,0.4313313,0,43.34831,-9.100111,7559.788
54.8,-9.133711,-0.4320634,0.01168168,0,0,0,0,0,9.133445,35.30516,0.4320634,0,43.54888,-9.133711,7557.447
55,-9.166778,-0.4328737,0.01170359,0,0,0,0,0,9.166512,35.43298,0.4328738,0,43.74664,-9.166778,7556.661
55.2,-9.199978,-0.4335625,0.01172222,0,0,0,0,0,9.199711,35.56131,0.4335625,0,43.94559,-9.199978,7553.642
55.4,-9.233577,-0.4345134,0.01174792,0,0,0,0,0,9.233311,35.69119,0.4345134,0,44.14735,-9.233577,7554.95
55.6,-9.266911,-0.435429,0.01177268,0,0,0,0,0,9.266644,35.82004,0.435429,0,44.34792,-9.266911,7555.701
55.8,-9.299845,-0.4358868,0.01178506,0,0,0,0,0,9.299577,35.94734,0.4358868,0,44.54646,-9.299845,7548.642
56,-9.333177,-0.4365611,0.01180329,0,0,0,0,0,9.332911,36.07619,0.4365611,0,44.74783,-9.333177,7545.112
56.2,-9.366911,-0.4376263,0.01183209,0,0,0,0,0,9.366645,36.20659,0.4376263,0,44.95203,-9.366911,7548.093
56.4,-9.400244,-0.4383477,0.01185159,0,0,0,0,0,9.399977,36.33543,0.4383477,0,45.1542,-9.400244,7545.265
56.6,-9.433577,-0.438904,0.01186663,0,0,0,0,0,9.43331,36.46428,0.438904,0,45.35679,-9.433577,7539.551
56.8,-9.466777,-0.4394711,0.01188197,0,0,0,0,0,9.46651,36.59262,0.4394711,0,45.55899,-9.466777,7534.043
57,-9.500244,-0.4401055,0.01189912,0,0,0,0,0,9.499977,36.72198,0.4401055,0,45.76322,-9.500244,7529.526
57.2,-9.533577,-0.4405554,0.01191128,0,0,0,0,0,9.533309,36.85083,0.4405554,0,45.96705,-9.533577,7521.876
57.4,-9.566776,-0.4411126,0.01192635,0,0,0,0,0,9.56651,36.97916,0.4411126,0,46.17048,-9.566776,7516.084
57.6,-9.599976,-0.4416849,0.01194182,0,0,0,0,0,9.59971,37.1075,0.4416849,0,46.37432,-9.599976,7510.509
57.8,-9.633443,-0.4421537,0.01195449,0,0,0,0,0,9.633176,37.23686,0.4421537,0,46.58022,-9.633443,7503.016
58,-9.667044,-0.442738,0.01197029,0,0,0,0,0,9.666778,37.36674,0.442738,0,46.78738,-9.667044,7497.384
58.2,-9.70011,-0.4431943,0.01198263,0,0,0,0,0,9.699843,37.49456,0.4431943,0,46.99167,-9.70011,7489.796
58.4,-9.733443,-0.443782,0.01199852,0,0,0,0,0,9.733177,37.62341,0.443782,0,47.19802,-9.733443,7484.266
58.6,-9.766909,-0.4445774,0.01202003,0,0,0,0,0,9.766642,37.75277,0.4445775,0,47.40562,-9.766909,7482.133
58.8,-9.800243,-0.4451962,0.01203675,0,0,0,0,0,9.799977,37.88163,0.4451962,0,47.61284,-9.800243,7477.036
59,-9.833443,-0.4459828,0.01205802,0,0,0,0,0,9.833177,38.00996,0.4459828,0,47.81965,-9.833443,7474.773
59.2,-9.866643,-0.4462447,0.0120651,0,0,0,0,0,9.866376,38.13829,0.4462447,0,48.02688,-9.866643,7463.68
59.4,-9.900376,-0.4470764,0.01208759,0,0,0,0,0,9.90011,38.26869,0.4470764,0,48.23789,-9.900376,7461.828
59.6,-9.933709,-0.447768,0.01210629,0,0,0,0,0,9.933443,38.39754,0.447768,0,48.44683,-9.933709,7457.771
59.8,-9.966909,-0.4480806,0.01211474,0,0,0,0,0,9.966641,38.52587,0.4480806,0,48.65537,-9.966909,7447.432
60,-10.00011,-0.4485758,0.01212813,0,0,0,0,0,9.999843,38.6542,0.4485758,0,48.86435,-10.00011,7440.098
60.2,-10.03344,-0.4491034,0.01214239,0,0,0,0,0,10.03318,38.78305,0.4491034,0,49.07462,-10.03344,7433.203
60.4,-10.06691,-0.449299,0.01214768,0,0,0,0,0,10.06664,38.91241,0.449299,0,49.28615,-10.06691,7420.726
60.6,-10.10024,-0.4498747,0.01216325,0,0,0,0,0,10.09997,39.04126,0.4498747,0,49.4973,-10.10024,7414.563
60.8,-10.13344,-0.4505765,0.01218222,0,0,0,0,0,10.13318,39.1696,0.4505765,0,49.70806,-10.13344,7410.494
61,-10.16678,-0.4508766,0.01219034,0,0,0,0,0,10.16651,39.29845,0.4508766,0,49.9201,-10.16678,7399.723
61.2,-10.20037,-0.4515173,0.01220766,0,0,0,0,0,10.20011,39.42833,0.4515173,0,50.13428,-10.20037,7394.383
61.4,-10.23331,-0.4521805,0.01222559,0,0,0,0,0,10.23304,39.55563,0.4521805,0,50.34468,-10.23331,7389.68
61.6,-10.26678,-0.4526137,0.0122373,0,0,0,0,0,10.26651,39.685,0.4526137,0,50.55893,-10.26678,7380.928
61.8,-10.30011,-0.4532991,0.01225583,0,0,0,0,0,10.29984,39.81384,0.4532991,0,50.77278,-10.30011,7376.315
62,-10.33344,-0.453751,0.01226805,0,0,0,0,0,10.33317,39.94269,0.453751,0,50.98709,-10.33344,7367.862
62.2,-10.36664,-0.4543796,0.01228505,0,0,0,0,0,10.36638,40.07103,0.4543796,0,51.20102,-10.36664,7362.301
62.4,-10.39997,-0.4548677,0.01229824,0,0,0,0,0,10.39971,40.19988,0.4548677,0,51.41625,-10.39997,7354.364
62.6,-10.43371,-0.4557299,0.01232156,0,0,0,0,0,10.43344,40.33027,0.4557299,0,51.63454,-10.43371,7352.238
62.8,-10.46704,-0.4561479,0.01233286,0,0,0,0,0,10.46677,40.45912,0.4561479,0,51.85071,-10.46704,7343.091
63,-10.50037,-0.4568384,0.01235153,0,0,0,0,0,10.50011,40.58797,0.4568384,0,52.06735,-10.50037,7338.292
63.2,-10.53357,-0.4575381,0.01237044,0,0,0,0,0,10.53331,40.7163,0.4575381,0,52.28358,-10.53357,7333.656
63.4,-10.56677,-0.458174,0.01238763,0,0,0,0,0,10.56651,40.84464,0.458174,0,52.5003,-10.56677,7327.95
63.6,-10.60024,-0.4586294,0.01239995,0,0,0,0,0,10.59997,40.974,0.4586294,0,52.71922,-10.60024,7319.193
63.8,-10.63344,-0.4591369,0.01241367,0,0,0,0,0,10.63317,41.10233,0.4591368,0,52.93687,-10.63344,7311.361
64,-10.66651,-0.4596801,0.01242836,0,0,0,0,0,10.66624,41.23015,0.4596801,0,53.15412,-10.66651,7304.126
64.2,-10.69997,-0.4603142,0.0124455,0,0,0,0,0,10.69971,41.35952,0.4603142,0,53.3745,-10.69997,7298.1
64.4,-10.73357,-0.460926,0.01246204,0,0,0,0,0,10.73331,41.4894,0.460926,0,53.59622,-10.73357,7291.616
64.60001,-10.76691,-0.4615438,0.01247875,0,0,0,0,0,10.76664,41.61825,0.4615438,0,53.81668,-10.76691,7285.31
64.8,-10.79997,-0.4624845,0.01250418,0,0,0,0,0,10.79971,41.74606,0.4624845,0,54.03585,-10.79997,7284.176
65,-10.83357,-0.4632634,0.01252524,0,0,0,0,0,10.83331,41.87595,0.4632634,0,54.25906,-10.83357,7280.176
65.2,-10.86691,-0.4639262,0.01254316,0,0,0,0,0,10.86664,42.00479,0.4639262,0,54.48098,-10.86691,7274.43
65.4,-10.89997,-0.4645766,0.01256074,0,0,0,0,0,10.89971,42.13261,0.4645766,0,54.70162,-10.89997,7268.573
65.60001,-10.93331,-0.4653201,0.01258084,0,0,0,0,0,10.93304,42.26146,0.4653201,0,54.92454,-10.93331,7263.995
65.8,-10.96704,-0.4661934,0.01260446,0,0,0,0,0,10.96677,42.39186,0.4661934,0,55.15062,-10.96704,7261.193
66,-11.00037,-0.4670249,0.01262694,0,0,0,0,0,11.00011,42.52071,0.4670249,0,55.37454,-11.00037,7257.874
66.20001,-11.03357,-0.4677094,0.01264544,0,0,0,0,0,11.03331,42.64904,0.4677094,0,55.59806,-11.03357,7252.284
66.4,-11.06677,-0.4685983,0.01266948,0,0,0,0,0,11.06651,42.77737,0.4685983,0,55.82208,-11.06677,7249.807
66.60001,-11.10011,-0.46962,0.0126971,0,0,0,0,0,11.09984,42.90622,0.46962,0,56.0475,-11.10011,7249.255
66.8,-11.13344,-0.4703433,0.01271666,0,0,0,0,0,11.13317,43.03507,0.4703433,0,56.27344,-11.13344,7244.033
67,-11.16677,-0.4709659,0.01273349,0,0,0,0,0,11.16651,43.16392,0.4709659,0,56.49989,-11.16677,7237.216
67.20001,-11.19997,-0.4715925,0.01275043,0,0,0,0,0,11.19971,43.29225,0.4715925,0,56.72593,-11.19997,7230.483
67.4,-11.23357,-0.4725467,0.01277623,0,0,0,0,0,11.23331,43.42213,0.4725467,0,56.95524,-11.23357,7228.518
67.60001,-11.26704,-0.473343,0.01279776,0,0,0,0,0,11.26677,43.5515,0.473343,0,57.18414,-11.26704,7224.144
67.8,-11.30011,-0.4742007,0.01282095,0,0,0,0,0,11.29984,43.67931,0.4742007,0,57.41083,-11.30011,7220.847
68,-11.33331,-0.4750209,0.01284313,0,0,0,0,0,11.33304,43.80765,0.4750209,0,57.63895,-11.33331,7216.854
68.20001,-11.36677,-0.4760882,0.01287198,0,0,0,0,0,11.36651,43.93702,0.4760882,0,57.86944,-11.36677,7216.416
68.4,-11.40011,-0.4770292,0.01289742,0,0,0,0,0,11.39984,44.06586,0.4770292,0,58.09953,-11.40011,7214.062
68.60001,-11.43331,-0.4779707,0.01292288,0,0,0,0,0,11.43304,44.19419,0.4779707,0,58.32923,-11.43331,7211.716
68.8,-11.46664,-0.4790267,0.01295143,0,0,0,0,0,11.46637,44.32305,0.4790267,0,58.56039,-11.46664,7210.961
69,-11.50037,-0.4801048,0.01298058,0,0,0,0,0,11.5001,44.45344,0.4801048,0,58.79486,-11.50037,7210.264
69.20001,-11.53357,-0.4811626,0.01300918,0,0,0,0,0,11.53331,44.58178,0.4811626,0,59.02617,-11.53357,7209.455
69.4,-11.56691,-0.4820861,0.01303415,0,0,0,0,0,11.56664,44.71062,0.4820861,0,59.25894,-11.56691,7206.497
69.60001,-11.60024,-0.4833884,0.01306936,0,0,0,0,0,11.59997,44.83947,0.4833884,0,59.49226,-11.60024,7209.125
69.8,-11.63344,-0.4843223,0.01309461,0,0,0,0,0,11.63317,44.96781,0.4843223,0,59.72518,-11.63344,7206.249
70,-11.66691,-0.4854034,0.01312384,0,0,0,0,0,11.66664,45.09717,0.4854034,0,59.96054,-11.66691,7205.357
70.20001,-11.7001,-0.4866337,0.0131571,0,0,0,0,0,11.69984,45.22551,0.4866337,0,60.19455,-11.7001,7206.734
70.4,-11.7333,-0.4878459,0.01318987,0,0,0,0,0,11.73304,45.35384,0.4878459,0,60.42912,-11.7333,7207.759
70.60001,-11.7669,-0.4891219,0.01322437,0,0,0,0,0,11.76664,45.48372,0.4891219,0,60.66708,-11.7669,7209.436
70.8,-11.80037,-0.490317,0.01325668,0,0,0,0,0,11.80011,45.61308,0.490317,0,60.90466,-11.80037,7209.902
71,-11.83344,-0.4917013,0.01329411,0,0,0,0,0,11.83317,45.7409,0.4917012,0,61.13995,-11.83344,7213.265
71.20001,-11.86664,-0.4930611,0.01333088,0,0,0,0,0,11.86637,45.86923,0.4930612,0,61.37674,-11.86664,7216.107
71.4,-11.90024,-0.4946048,0.01337261,0,0,0,0,0,11.89997,45.99911,0.4946048,0,61.61698,-11.90024,7221.329
71.60001,-11.93344,-0.4960329,0.01341123,0,0,0,0,0,11.93317,46.12745,0.4960329,0,61.85491,-11.93344,7224.969
71.8,-11.9665,-0.4972086,0.01344301,0,0,0,0,0,11.96624,46.25527,0.4972087,0,62.09245,-11.9665,7224.912
72,-11.99997,-0.498875,0.01348807,0,0,0,0,0,11.9997,46.38463,0.498875,0,62.33343,-11.99997,7231.677
72.20001,-12.03357,-0.5002456,0.01352512,0,0,0,0,0,12.0333,46.51451,0.5002456,0,62.57598,-12.03357,7233.978
72.4,-12.06704,-0.5018381,0.01356818,0,0,0,0,0,12.06677,46.64388,0.5018381,0,62.81814,-12.06704,7239.455
72.60001,-12.10037,-0.5034468,0.01361167,0,0,0,0,0,12.1001,46.77272,0.5034468,0,63.05992,-12.10037,7245.124
72.8,-12.1337,-0.5050216,0.01365425,0,0,0,0,0,12.13344,46.90157,0.5050216,0,63.30229,-12.1337,7250.193
73,-12.1669,-0.5064613,0.01369318,0,0,0,0,0,12.16664,47.02991,0.5064613,0,63.54427,-12.1669,7253.288
73.20001,-12.20024,-0.5080343,0.0137357,0,0,0,0,0,12.19997,47.15876,0.5080342,0,63.78781,-12.20024,7258.117
73.4,-12.23357,-0.5095859,0.01377766,0,0,0,0,0,12.2333,47.28761,0.5095859,0,64.03196,-12.23357,7262.532
73.60001,-12.26677,-0.5110897,0.01381832,0,0,0,0,0,12.2665,47.41594,0.5110897,0,64.27572,-12.26677,7266.231
73.8,-12.30024,-0.5126502,0.01386051,0,0,0,0,0,12.29997,47.5453,0.5126502,0,64.52203,-12.30024,7270.487
74,-12.3337,-0.5143697,0.013907,0,0,0,0,0,12.33344,47.67467,0.5143697,0,64.76896,-12.3337,7276.882
74.20001,-12.36677,-0.5158982,0.01394832,0,0,0,0,0,12.3665,47.80249,0.5158982,0,65.01353,-12.36677,7280.677
74.4,-12.39997,-0.5174656,0.0139907,0,0,0,0,0,12.3997,47.93082,0.5174656,0,65.2597,-12.39997,7284.843
74.60001,-12.43357,-0.5192648,0.01403935,0,0,0,0,0,12.4333,48.0607,0.5192648,0,65.50944,-12.43357,7291.938
74.8,-12.46677,-0.5209279,0.01408431,0,0,0,0,0,12.4665,48.18903,0.5209279,0,65.75684,-12.46677,7297.218
75,-12.5001,-0.5228212,0.0141355,0,0,0,0,0,12.49984,48.31788,0.5228212,0,66.00584,-12.5001,7305.526
75.20001,-12.5333,-0.5242881,0.01417516,0,0,0,0,0,12.53304,48.44622,0.5242881,0,66.25446,-12.5333,7307.831
75.4,-12.56704,-0.5263056,0.01422971,0,0,0,0,0,12.56677,48.57661,0.5263056,0,66.50771,-12.56704,7317.398
75.60001,-12.60037,-0.5281671,0.01428004,0,0,0,0,0,12.6001,48.70546,0.5281671,0,66.75859,-12.60037,7324.879
75.8,-12.6337,-0.5299843,0.01432917,0,0,0,0,0,12.63344,48.83431,0.5299842,0,67.0101,-12.6337,7331.617
76,-12.6669,-0.5317799,0.01437772,0,0,0,0,0,12.66664,48.96264,0.5317799,0,67.26123,-12.6669,7338.007
76.20001,-12.7001,-0.5337242,0.01443028,0,0,0,0,0,12.69984,49.09098,0.5337242,0,67.513,-12.7001,7346.316
76.4,-12.73357,-0.5357824,0.01448593,0,0,0,0,0,12.7333,49.22034,0.5357824,0,67.76744,-12.73357,7355.906
76.60001,-12.7669,-0.537656,0.01453659,0,0,0,0,0,12.76663,49.34919,0.537656,0,68.02149,-12.7669,7362.9
76.8,-12.79984,-0.5398148,0.01459496,0,0,0,0,0,12.79957,49.47649,0.5398148,0,68.27315,-12.79984,7373.883
77,-12.83344,-0.5423173,0.01466261,0,0,0,0,0,12.83317,49.60637,0.5423173,0,68.53055,-12.83344,7389.023
77.20001,-12.86704,-0.5444503,0.01472028,0,0,0,0,0,12.86677,49.73625,0.5444503,0,68.78861,-12.86704,7398.967
77.4,-12.9001,-0.5467657,0.01478289,0,0,0,0,0,12.89984,49.86407,0.5467657,0,69.04323,-12.9001,7411.538
77.60001,-12.93343,-0.5490871,0.01484565,0,0,0,0,0,12.93317,49.99292,0.5490871,0,69.30056,-12.93343,7423.876
77.8,-12.9669,-0.551585,0.01491319,0,0,0,0,0,12.96663,50.12228,0.551585,0,69.55958,-12.9669,7438.357
78,-13.0001,-0.5540246,0.01497914,0,0,0,0,0,12.99983,50.25062,0.5540246,0,69.81721,-13.0001,7452.032
78.20001,-13.0333,-0.5561539,0.01503671,0,0,0,0,0,13.03304,50.37895,0.5561538,0,70.07551,-13.0333,7461.375
78.4,-13.06663,-0.5584163,0.01509788,0,0,0,0,0,13.06637,50.5078,0.5584163,0,70.33551,-13.06663,7472.275
78.60001,-13.10037,-0.5608799,0.01516449,0,0,0,0,0,13.1001,50.6382,0.5608798,0,70.59932,-13.10037,7485.466
78.8,-13.1337,-0.563053,0.01522325,0,0,0,0,0,13.13343,50.76704,0.563053,0,70.8607,-13.1337,7494.854
79,-13.1669,-0.5656702,0.01529401,0,0,0,0,0,13.16664,50.89538,0.5656702,0,71.12171,-13.1669,7510.064
79.20001,-13.2001,-0.5679299,0.0153551,0,0,0,0,0,13.19983,51.02371,0.5679299,0,71.38339,-13.2001,7520.36
79.4,-13.23357,-0.5704715,0.01542382,0,0,0,0,0,13.2333,51.15308,0.5704715,0,71.64788,-13.23357,7534.06
79.60001,-13.26703,-0.5728859,0.0154891,0,0,0,0,0,13.26677,51.28244,0.5728859,0,71.91307,-13.26703,7545.909
79.8,-13.3001,-0.5751993,0.01555164,0,0,0,0,0,13.29984,51.41026,0.5751992,0,72.17578,-13.3001,7556.503
80,-13.3333,-0.5776779,0.01561866,0,0,0,0,0,13.33303,51.53859,0.5776779,0,72.44024,-13.3333,7569.022
80.20001,-13.36677,-0.5803743,0.01569156,0,0,0,0,0,13.3665,51.66796,0.5803743,0,72.70755,-13.36677,7584.052
80.4,-13.40037,-0.5829114,0.01576016,0,0,0,0,0,13.4001,51.79784,0.5829114,0,72.97663,-13.40037,7596.736
80.60001,-13.43343,-0.585646,0.01583409,0,0,0,0,0,13.43317,51.92566,0.585646,0,73.24215,-13.43343,7612.137
80.8,-13.46663,-0.5882499,0.01590449,0,0,0,0,0,13.46637,52.05399,0.5882499,0,73.50946,-13.46663,7625.569
81.00001,-13.50023,-0.5910509,0.01598022,0,0,0,0,0,13.49997,52.18387,0.5910509,0,73.78072,-13.50023,7641.124
81.20001,-13.53357,-0.5940854,0.01606227,0,0,0,0,0,13.5333,52.31272,0.5940854,0,74.05054,-13.53357,7659.659
81.4,-13.56677,-0.5966927,0.01613276,0,0,0,0,0,13.5665,52.44105,0.5966927,0,74.32002,-13.56677,7672.571
81.60001,-13.6001,-0.5995768,0.01621074,0,0,0,0,0,13.59983,52.5699,0.5995768,0,74.59132,-13.6001,7688.77
81.8,-13.6337,-0.6028342,0.01629881,0,0,0,0,0,13.63343,52.69978,0.6028342,0,74.86552,-13.6337,7709.373
82.00001,-13.66703,-0.6057866,0.01637863,0,0,0,0,0,13.66677,52.82863,0.6057866,0,75.1383,-13.66703,7726.026
82.20001,-13.70023,-0.6087029,0.01645748,0,0,0,0,0,13.69997,52.95696,0.6087029,0,75.41073,-13.70023,7742.098
82.4,-13.73343,-0.6120342,0.01654755,0,0,0,0,0,13.73317,53.0853,0.6120341,0,75.68391,-13.73343,7763.232
82.60001,-13.7669,-0.6150177,0.01662821,0,0,0,0,0,13.76663,53.21466,0.6150177,0,75.96003,-13.7669,7779.566
82.8,-13.80023,-0.6178355,0.0167044,0,0,0,0,0,13.79997,53.34351,0.6178355,0,76.23582,-13.80023,7793.685
83.00001,-13.83343,-0.6210747,0.01679198,0,0,0,0,0,13.83317,53.47184,0.6210747,0,76.51126,-13.83343,7812.997
83.20001,-13.86663,-0.6242029,0.01687655,0,0,0,0,0,13.86637,53.60018,0.624203,0,76.78746,-13.86663,7830.691
83.4,-13.9001,-0.6273334,0.01696119,0,0,0,0,0,13.89983,53.72954,0.6273334,0,77.06664,-13.9001,7848.022
83.60001,-13.9337,-0.6308389,0.01705597,0,0,0,0,0,13.93343,53.85942,0.6308389,0,77.34775,-13.9337,7869.723
83.8,-13.96677,-0.6341944,0.01714669,0,0,0,0,0,13.9665,53.98724,0.6341944,0,77.62515,-13.96677,7889.666
84.00001,-14.0001,-0.6374681,0.0172352,0,0,0,0,0,13.99983,54.11609,0.6374681,0,77.90556,-14.0001,7908.186
84.20001,-14.03357,-0.641013,0.01733105,0,0,0,0,0,14.0333,54.24545,0.641013,0,78.1879,-14.03357,7929.742
84.4,-14.0669,-0.6446092,0.01742828,0,0,0,0,0,14.06663,54.37431,0.6446092,0,78.46992,-14.0669,7951.773
84.60001,-14.1001,-0.6480501,0.01752131,0,0,0,0,0,14.09983,54.50264,0.6480501,0,78.75158,-14.1001,7971.734
84.8,-14.13303,-0.6515203,0.01761513,0,0,0,0,0,14.13276,54.62994,0.6515203,0,79.03177,-14.13303,7991.997
85.00001,-14.1669,-0.6555156,0.01772315,0,0,0,0,0,14.16663,54.76085,0.6555156,0,79.32074,-14.1669,8017.804
85.20001,-14.20037,-0.6590851,0.01781966,0,0,0,0,0,14.2001,54.89021,0.6590851,0,79.60709,-14.20037,8038.412
85.4,-14.23383,-0.6629176,0.01792328,0,0,0,0,0,14.23357,55.01958,0.6629176,0,79.89429,-14.23383,8061.966
85.60001,-14.2669,-0.6667094,0.0180258,0,0,0,0,0,14.26663,55.1474,0.6667094,0,80.17886,-14.2669,8085.04
85.8,-14.3001,-0.6706788,0.01813312,0,0,0,0,0,14.29983,55.27573,0.6706789,0,80.4654,-14.3001,8109.906
86.00001,-14.33356,-0.6744414,0.01823485,0,0,0,0,0,14.3333,55.40509,0.6744414,0,80.75505,-14.33356,8131.815
86.20001,-14.36676,-0.6784676,0.01834371,0,0,0,0,0,14.3665,55.53343,0.6784676,0,81.04325,-14.36676,8156.817
86.4,-14.39996,-0.6822325,0.0184455,0,0,0,0,0,14.3997,55.66176,0.6822325,0,81.33227,-14.39996,8178.408
86.60001,-14.43343,-0.6861972,0.01855269,0,0,0,0,0,14.43316,55.79113,0.6861972,0,81.62446,-14.43343,8201.936
86.8,-14.46716,-0.6904522,0.01866773,0,0,0,0,0,14.4669,55.92152,0.6904522,0,81.91986,-14.46716,8228.452
87.00001,-14.50023,-0.6945208,0.01877774,0,0,0,0,0,14.49996,56.04934,0.6945208,0,82.21026,-14.50023,8252.938
87.20001,-14.53343,-0.6983647,0.01888166,0,0,0,0,0,14.53316,56.17768,0.6983647,0,82.50268,-14.53343,8274.384
87.4,-14.56676,-0.7027342,0.0189998,0,0,0,0,0,14.5665,56.30652,0.7027342,0,82.79713,-14.56676,8301.674
87.60001,-14.60023,-0.7072721,0.01912249,0,0,0,0,0,14.59997,56.43589,0.7072721,0,83.09366,-14.60023,8330.544
87.8,-14.6333,-0.7112974,0.01923132,0,0,0,0,0,14.63303,56.56371,0.7112974,0,83.38749,-14.6333,8353.374
88.00001,-14.66663,-0.7155545,0.01934642,0,0,0,0,0,14.66636,56.69255,0.7155545,0,83.68456,-14.66663,8378.442
88.20001,-14.70036,-0.7200717,0.01946856,0,0,0,0,0,14.7001,56.82295,0.7200717,0,83.98612,-14.70036,8405.948
88.4,-14.7337,-0.7244909,0.01958804,0,0,0,0,0,14.73343,56.9518,0.7244909,0,84.28498,-14.7337,8432.297
88.60001,-14.76703,-0.7289503,0.01970861,0,0,0,0,0,14.76676,57.08065,0.7289503,0,84.58473,-14.76703,8458.806
88.8,-14.8001,-0.7334344,0.01982984,0,0,0,0,0,14.79983,57.20847,0.7334344,0,84.88299,-14.8001,8485.493
89.00001,-14.83343,-0.7382972,0.01996132,0,0,0,0,0,14.83316,57.33732,0.7382972,0,85.18456,-14.83343,8516.034
89.20001,-14.8669,-0.7425949,0.02007751,0,0,0,0,0,14.86663,57.46668,0.7425948,0,85.48824,-14.8669,8539.633
89.4,-14.90023,-0.7472476,0.02020331,0,0,0,0,0,14.89996,57.59553,0.7472476,0,85.79163,-14.90023,8567.107
89.60001,-14.9333,-0.7519754,0.02033113,0,0,0,0,0,14.93303,57.72335,0.7519754,0,86.09352,-14.9333,8595.323
89.8,-14.9669,-0.756583,0.02045571,0,0,0,0,0,14.96663,57.85323,0.756583,0,86.40121,-14.9669,8621.421
90.00001,-15.00036,-0.7613977,0.02058588,0,0,0,0,0,15.0001,57.98259,0.7613977,0,86.70861,-15.00036,8649.655
90.20001,-15.03343,-0.7659686,0.02070947,0,0,0,0,0,15.03316,58.11041,0.7659686,0,87.01328,-15.03343,8675.111
90.3,-15.04996,-0.7680784,0.02076651,0,0,0,0,0,15.0497,58.17432,0.7680784,0,87.16597,-15.04996,8685.734