File: GFBaking/data/XG/XG_Compression_Data/XG_Compression_Specimen5.csv
Time sec,Extension mm,Load kgf,Compressive stress MPa,Cycle Count ,Total Cycle Count ,Repetitions Count ,Marked Data ,PIP Count ,Compressive extension mm,Compressive strain %,Compressive load kgf,Displacement (Strain 1) mm,True strain %,Corrected Position mm,True stress Pa
0,0.000133333,-0.008662446,0.0002704029,0,0,0,0,0,0,0,0.008662445,0,0,0.000133333,270.4029
0.2,-0.02973326,-0.01041658,0.0003251591,0,0,0,0,0,0.02986659,0.1294046,0.01041658,0,0.1294884,-0.02973326,324.7383
0.4,-0.06559984,-0.01234834,0.00038546,0,0,0,0,0,0.06573318,0.2848058,0.01234834,0,0.2852121,-0.06559984,384.3622
0.6,-0.09946642,-0.0139421,0.0004352102,0,0,0,0,0,0.09959976,0.4315414,0.0139421,0,0.4324753,-0.09946642,433.3321
0.8,-0.132933,-0.01536897,0.0004797507,0,0,0,0,0,0.1330663,0.5765439,0.01536897,0,0.5782123,-0.132933,476.9848
1,-0.1665329,-0.01700109,0.000530698,0,0,0,0,0,0.1666663,0.7221242,0.01700109,0,0.7247442,-0.1665329,526.8658
1.2,-0.1997329,-0.01859305,0.0005803921,0,0,0,0,0,0.1998662,0.8659713,0.01859305,0,0.8697426,-0.1997329,575.366
1.4,-0.2327994,-0.01995448,0.0006228899,0,0,0,0,0,0.2329328,1.009241,0.01995448,0,1.014368,-0.2327994,616.6034
1.6,-0.2665327,-0.02161368,0.0006746828,0,0,0,0,0,0.266666,1.155399,0.02161369,0,1.162125,-0.2665327,666.8875
1.8,-0.3001326,-0.02305196,0.0007195793,0,0,0,0,0,0.300266,1.300979,0.02305196,0,1.309516,-0.3001326,710.2178
2,-0.3331992,-0.02422894,0.0007563193,0,0,0,0,0,0.3333325,1.444248,0.02422894,0,1.454779,-0.3331992,745.3962
2.2,-0.3665324,-0.0257286,0.000803132,0,0,0,0,0,0.3666658,1.588673,0.0257286,0,1.601428,-0.3665324,790.3729
2.4,-0.3998657,-0.0269912,0.0008425448,0,0,0,0,0,0.399999,1.733098,0.0269912,0,1.748292,-0.3998657,827.9427
2.6,-0.4330656,-0.02801599,0.0008745341,0,0,0,0,0,0.4331989,1.876945,0.02801599,0,1.894783,-0.4330656,858.1196
2.8,-0.4663989,-0.02929112,0.000914338,0,0,0,0,0,0.4665322,2.02137,0.02929112,0,2.042079,-0.4663989,895.8559
3,-0.4995988,-0.03048663,0.0009516566,0,0,0,0,0,0.4997321,2.165217,0.03048663,0,2.189002,-0.4995988,931.0512
3.2,-0.5330654,-0.03167637,0.0009887948,0,0,0,0,0,0.5331987,2.31022,0.03167637,0,2.337323,-0.5330654,965.9515
3.4,-0.566532,-0.03280314,0.001023968,0,0,0,0,0,0.5666653,2.455222,0.03280314,0,2.485866,-0.566532,998.8269
3.6,-0.5999985,-0.03416832,0.001066583,0,0,0,0,0,0.6001319,2.600225,0.03416832,0,2.634628,-0.5999985,1038.849
3.8,-0.6329318,-0.03510771,0.001095906,0,0,0,0,0,0.633065,2.742916,0.03510771,0,2.781237,-0.6329318,1065.846
4,-0.6665317,-0.03617783,0.00112931,0,0,0,0,0,0.6666651,2.888497,0.03617783,0,2.931035,-0.6665317,1096.69
4.2,-0.699865,-0.03729657,0.001164232,0,0,0,0,0,0.6999983,3.032922,0.03729657,0,3.079866,-0.699865,1128.922
4.4,-0.7331982,-0.03865477,0.00120663,0,0,0,0,0,0.7333315,3.177346,0.03865477,0,3.228919,-0.7331982,1168.291
4.6,-0.7663982,-0.03969127,0.001238984,0,0,0,0,0,0.7665315,3.321194,0.03969127,0,3.377598,-0.7663982,1197.835
4.8,-0.7998647,-0.04094299,0.001278057,0,0,0,0,0,0.799998,3.466196,0.04094299,0,3.527694,-0.7998647,1233.757
5,-0.8334646,-0.04205888,0.001312891,0,0,0,0,0,0.8335979,3.611776,0.04205888,0,3.678615,-0.8334646,1265.472
5.2,-0.8666646,-0.04323023,0.001349455,0,0,0,0,0,0.8667979,3.755624,0.04323023,0,3.827964,-0.8666646,1298.774
5.4,-0.8997311,-0.04442251,0.001386673,0,0,0,0,0,0.8998645,3.898893,0.04442251,0,3.976935,-0.8997311,1332.608
5.6,-0.9330644,-0.0456097,0.001423731,0,0,0,0,0,0.9331977,4.043318,0.04560969,0,4.127332,-0.9330644,1366.165
5.8,-0.9663976,-0.04693818,0.001465201,0,0,0,0,0,0.966531,4.187743,0.04693818,0,4.277956,-0.9663976,1403.842
6,-0.9997309,-0.04801768,0.001498898,0,0,0,0,0,0.9998642,4.332167,0.04801768,0,4.428807,-0.9997309,1433.963
6.2,-1.033064,-0.04914348,0.00153404,0,0,0,0,0,1.033198,4.476593,0.04914347,0,4.579886,-1.033064,1465.367
6.4,-1.066397,-0.05031182,0.00157051,0,0,0,0,0,1.066531,4.621017,0.05031182,0,4.731193,-1.066397,1497.937
6.6,-1.099997,-0.05138246,0.001603931,0,0,0,0,0,1.100131,4.766597,0.05138246,0,4.883943,-1.099997,1527.478
6.8,-1.133331,-0.05251111,0.001639162,0,0,0,0,0,1.133464,4.911022,0.05251111,0,5.035712,-1.133331,1558.663
7,-1.166397,-0.05370947,0.00167657,0,0,0,0,0,1.16653,5.054291,0.05370947,0,5.186494,-1.166397,1591.831
7.2,-1.19973,-0.05487309,0.001712893,0,0,0,0,0,1.199864,5.198717,0.05487309,0,5.338724,-1.19973,1623.845
7.4,-1.233064,-0.05590441,0.001745086,0,0,0,0,0,1.233197,5.343141,0.05590441,0,5.491184,-1.233064,1651.844
7.6,-1.266397,-0.05699396,0.001779097,0,0,0,0,0,1.26653,5.487566,0.05699396,0,5.643879,-1.266397,1681.468
7.8,-1.299597,-0.05806775,0.001812616,0,0,0,0,0,1.29973,5.631413,0.05806775,0,5.796194,-1.299597,1710.54
8,-1.33333,-0.05925111,0.001849555,0,0,0,0,0,1.333463,5.777571,0.05925111,0,5.951194,-1.33333,1742.696
8.200001,-1.366797,-0.06053637,0.001889675,0,0,0,0,0,1.36693,5.922574,0.06053637,0,6.105206,-1.366797,1777.758
8.400001,-1.399997,-0.06172453,0.001926764,0,0,0,0,0,1.40013,6.066421,0.06172453,0,6.258226,-1.399997,1809.879
8.6,-1.433063,-0.06292927,0.001964371,0,0,0,0,0,1.433196,6.20969,0.06292927,0,6.410864,-1.433063,1842.39
8.8,-1.46653,-0.06416989,0.002003097,0,0,0,0,0,1.466663,6.354693,0.06416988,0,6.565587,-1.46653,1875.807
9,-1.49973,-0.06523407,0.002036317,0,0,0,0,0,1.499863,6.49854,0.06523407,0,6.719313,-1.49973,1903.986
9.200001,-1.533063,-0.06637533,0.002071942,0,0,0,0,0,1.533196,6.642964,0.06637533,0,6.873895,-1.533063,1934.303
9.400001,-1.566396,-0.06766862,0.002112312,0,0,0,0,0,1.56653,6.78739,0.06766862,0,7.028717,-1.566396,1968.941
9.6,-1.599596,-0.06861634,0.002141896,0,0,0,0,0,1.599729,6.931237,0.06861634,0,7.183157,-1.599596,1993.436
9.8,-1.633329,-0.06974792,0.002177219,0,0,0,0,0,1.633463,7.077394,0.06974792,0,7.340324,-1.633329,2023.128
10,-1.666796,-0.07083942,0.00221129,0,0,0,0,0,1.666929,7.222397,0.07083941,0,7.496493,-1.666796,2051.582
10.2,-1.699729,-0.07178443,0.00224079,0,0,0,0,0,1.699862,7.365089,0.07178444,0,7.650411,-1.699729,2075.754
10.4,-1.733062,-0.07275031,0.00227094,0,0,0,0,0,1.733196,7.509514,0.07275031,0,7.80644,-1.733062,2100.403
10.6,-1.766662,-0.07384872,0.002305227,0,0,0,0,0,1.766796,7.655094,0.07384872,0,7.963964,-1.766662,2128.76
10.8,-1.799862,-0.07493001,0.002338981,0,0,0,0,0,1.799996,7.798941,0.07493001,0,8.119857,-1.799862,2156.565
11,-1.833062,-0.07575234,0.00236465,0,0,0,0,0,1.833195,7.942788,0.07575234,0,8.275993,-1.833062,2176.831
11.2,-1.866529,-0.07677472,0.002396564,0,0,0,0,0,1.866662,8.08779,0.07677472,0,8.433631,-1.866529,2202.735
11.4,-1.900129,-0.07787501,0.00243091,0,0,0,0,0,1.900262,8.233371,0.077875,0,8.592147,-1.900129,2230.764
11.6,-1.933329,-0.07887323,0.00246207,0,0,0,0,0,1.933462,8.377218,0.07887323,0,8.749024,-1.933329,2255.817
11.8,-1.966262,-0.07975528,0.002489604,0,0,0,0,0,1.966395,8.519911,0.07975528,0,8.904884,-1.966262,2277.492
12,-1.999995,-0.08100213,0.002528525,0,0,0,0,0,2.000129,8.666068,0.08100213,0,9.064782,-1.999995,2309.401
12.2,-2.033195,-0.08186407,0.002555431,0,0,0,0,0,2.033328,8.809915,0.08186407,0,9.2224,-2.033195,2330.3
12.4,-2.066528,-0.08303114,0.002591862,0,0,0,0,0,2.066662,8.95434,0.08303114,0,9.380904,-2.066528,2359.778
12.6,-2.099728,-0.0839084,0.002619246,0,0,0,0,0,2.099861,9.098186,0.0839084,0,9.539023,-2.099728,2380.942
12.8,-2.133061,-0.08484681,0.002648539,0,0,0,0,0,2.133195,9.242612,0.08484681,0,9.69803,-2.133061,2403.745
13,-2.166661,-0.08591475,0.002681875,0,0,0,0,0,2.166795,9.388192,0.08591475,0,9.858566,-2.166661,2430.095
13.2,-2.199995,-0.08674862,0.002707905,0,0,0,0,0,2.200128,9.532617,0.08674862,0,10.01808,-2.199995,2449.771
13.4,-2.232928,-0.08799915,0.002746941,0,0,0,0,0,2.233061,9.675308,0.08799915,0,10.17593,-2.232928,2481.166
13.6,-2.266261,-0.08892098,0.002775716,0,0,0,0,0,2.266394,9.819734,0.08892098,0,10.33596,-2.266261,2503.148
13.8,-2.299994,-0.09012407,0.002813271,0,0,0,0,0,2.300128,9.965892,0.09012407,0,10.49816,-2.299994,2532.904
14,-2.333061,-0.09130967,0.00285028,0,0,0,0,0,2.333194,10.10916,0.09130967,0,10.65742,-2.333061,2562.141
14.2,-2.366261,-0.09228366,0.002880684,0,0,0,0,0,2.366394,10.25301,0.09228366,0,10.81757,-2.366261,2585.327
14.4,-2.399861,-0.09333591,0.002913531,0,0,0,0,0,2.399994,10.39859,0.09333591,0,10.97991,-2.399861,2610.565
14.6,-2.433461,-0.09425856,0.002942332,0,0,0,0,0,2.433594,10.54417,0.09425856,0,11.14252,-2.433461,2632.087
14.8,-2.466661,-0.09527428,0.002974038,0,0,0,0,0,2.466794,10.68802,0.09527428,0,11.30345,-2.466661,2656.172
15,-2.499861,-0.09634904,0.003007587,0,0,0,0,0,2.499994,10.83186,0.09634904,0,11.46464,-2.499861,2681.809
15.2,-2.533194,-0.0974067,0.003040602,0,0,0,0,0,2.533327,10.97629,0.0974067,0,11.62674,-2.533194,2706.857
15.4,-2.566261,-0.09834414,0.003069865,0,0,0,0,0,2.566394,11.11956,0.09834414,0,11.78781,-2.566261,2728.51
15.6,-2.599727,-0.09932882,0.003100602,0,0,0,0,0,2.59986,11.26456,0.09932882,0,11.95108,-2.599727,2751.333
15.8,-2.63306,-0.100278,0.00313023,0,0,0,0,0,2.633194,11.40899,0.100278,0,12.11397,-2.63306,2773.103
16,-2.666527,-0.1014905,0.003168082,0,0,0,0,0,2.66666,11.55399,0.1014905,0,12.27779,-2.666527,2802.042
16.2,-2.699993,-0.1025675,0.003201698,0,0,0,0,0,2.700127,11.69899,0.1025675,0,12.44186,-2.699993,2827.132
16.4,-2.733327,-0.1036016,0.00323398,0,0,0,0,0,2.73346,11.84341,0.1036016,0,12.60556,-2.733327,2850.967
16.6,-2.766393,-0.104867,0.003273478,0,0,0,0,0,2.766526,11.98668,0.104867,0,12.76821,-2.766393,2881.097
16.8,-2.799727,-0.1060813,0.003311384,0,0,0,0,0,2.79986,12.13111,0.1060813,0,12.93243,-2.799727,2909.676
17,-2.833193,-0.1073162,0.003349932,0,0,0,0,0,2.833327,12.27611,0.1073162,0,13.09759,-2.833193,2938.691
17.2,-2.866526,-0.1087006,0.003393149,0,0,0,0,0,2.86666,12.42054,0.1087006,0,13.26236,-2.866526,2971.702
17.4,-2.899593,-0.1099093,0.003430879,0,0,0,0,0,2.899726,12.56381,0.1099093,0,13.42609,-2.899593,2999.83
17.6,-2.933326,-0.1112914,0.00347402,0,0,0,0,0,2.933459,12.70996,0.1112914,0,13.59338,-2.933326,3032.473
17.8,-2.966793,-0.1125592,0.003513595,0,0,0,0,0,2.966926,12.85497,0.1125592,0,13.75964,-2.966793,3061.924
18,-2.999993,-0.1139205,0.003556091,0,0,0,0,0,3.000126,12.99881,0.1139205,0,13.92484,-2.999993,3093.841
18.2,-3.033059,-0.1152647,0.003598051,0,0,0,0,0,3.033193,13.14208,0.1152648,0,14.08965,-3.033059,3125.192
18.4,-3.066526,-0.1165049,0.003636764,0,0,0,0,0,3.066659,13.28708,0.1165049,0,14.25674,-3.066526,3153.544
18.6,-3.099726,-0.1177289,0.003674971,0,0,0,0,0,3.099859,13.43093,0.1177289,0,14.42276,-3.099726,3181.388
18.8,-3.133059,-0.1191122,0.003718153,0,0,0,0,0,3.133192,13.57536,0.1191122,0,14.58973,-3.133059,3213.4
19,-3.166392,-0.1204422,0.003759668,0,0,0,0,0,3.166525,13.71978,0.1204422,0,14.75698,-3.166392,3243.85
19.2,-3.199726,-0.1217668,0.003801015,0,0,0,0,0,3.199859,13.86421,0.1217668,0,14.92452,-3.199726,3274.035
19.4,-3.233192,-0.1230848,0.003842157,0,0,0,0,0,3.233325,14.00921,0.1230848,0,15.093,-3.233192,3303.901
19.6,-3.266792,-0.1244996,0.00388632,0,0,0,0,0,3.266925,14.15479,0.1244996,0,15.26244,-3.266792,3336.22
19.8,-3.299725,-0.1259353,0.003931137,0,0,0,0,0,3.299858,14.29748,0.1259353,0,15.4288,-3.299725,3369.083
20,-3.333192,-0.1273341,0.003974803,0,0,0,0,0,3.333325,14.44248,0.1273341,0,15.59813,-3.333192,3400.743
20.2,-3.366658,-0.1287372,0.004018601,0,0,0,0,0,3.366792,14.58749,0.1287372,0,15.76776,-3.366658,3432.388
20.4,-3.399858,-0.1300379,0.004059204,0,0,0,0,0,3.399992,14.73133,0.1300379,0,15.93631,-3.399858,3461.229
20.6,-3.432925,-0.1314977,0.004104773,0,0,0,0,0,3.433058,14.8746,0.1314977,0,16.10448,-3.432925,3494.204
20.8,-3.466525,-0.1327667,0.004144385,0,0,0,0,0,3.466658,15.02018,0.1327667,0,16.27564,-3.466525,3521.891
21,-3.500125,-0.134145,0.004187409,0,0,0,0,0,3.500258,15.16576,0.134145,0,16.4471,-3.500125,3552.357
21.2,-3.533325,-0.1355824,0.004232277,0,0,0,0,0,3.533458,15.30961,0.1355824,0,16.61681,-3.533325,3584.331
21.4,-3.566391,-0.1370896,0.004279325,0,0,0,0,0,3.566525,15.45288,0.1370896,0,16.78612,-3.566391,3618.046
21.6,-3.599858,-0.1385908,0.004326187,0,0,0,0,0,3.599991,15.59788,0.1385908,0,16.95777,-3.599858,3651.393
21.8,-3.633191,-0.1400066,0.004370381,0,0,0,0,0,3.633324,15.74231,0.1400066,0,17.12903,-3.633191,3682.382
22,-3.666391,-0.1412449,0.004409037,0,0,0,0,0,3.666524,15.88615,0.1412449,0,17.2999,-3.666391,3708.61
22.2,-3.699724,-0.1427317,0.004455446,0,0,0,0,0,3.699857,16.03058,0.1427317,0,17.47175,-3.699724,3741.212
22.4,-3.733058,-0.1444186,0.004508104,0,0,0,0,0,3.733191,16.175,0.1444186,0,17.64389,-3.733058,3778.918
22.6,-3.766658,-0.1457541,0.004549793,0,0,0,0,0,3.766791,16.32059,0.1457541,0,17.81772,-3.766658,3807.241
22.8,-3.799991,-0.1473787,0.004600505,0,0,0,0,0,3.800124,16.46501,0.1473787,0,17.99046,-3.799991,3843.032
23,-3.833057,-0.1490844,0.00465375,0,0,0,0,0,3.83319,16.60828,0.1490844,0,18.16211,-3.833057,3880.842
23.2,-3.866524,-0.1505854,0.004700604,0,0,0,0,0,3.866657,16.75328,0.1505854,0,18.33615,-3.866524,3913.099
23.4,-3.899857,-0.1518644,0.004740529,0,0,0,0,0,3.89999,16.89771,0.1518644,0,18.50979,-3.899857,3939.488
23.6,-3.93319,-0.1535781,0.004794023,0,0,0,0,0,3.933324,17.04213,0.1535781,0,18.68373,-3.93319,3977.02
23.8,-3.965991,-0.1550695,0.004840578,0,0,0,0,0,3.966124,17.18425,0.1550695,0,18.85519,-3.965991,4008.762
24,-3.999857,-0.15677,0.00489366,0,0,0,0,0,3.99999,17.33098,0.15677,0,19.03253,-3.999857,4045.541
24.2,-4.033457,-0.1585462,0.004949105,0,0,0,0,0,4.03359,17.47656,0.1585462,0,19.20878,-4.033457,4084.172
24.4,-4.066657,-0.1603049,0.005004004,0,0,0,0,0,4.06679,17.62041,0.1603049,0,19.38324,-4.066657,4122.278
24.6,-4.099857,-0.1618373,0.005051839,0,0,0,0,0,4.09999,17.76425,0.1618373,0,19.55801,-4.099857,4154.417
24.8,-4.13319,-0.1636561,0.005108614,0,0,0,0,0,4.133323,17.90868,0.1636561,0,19.73379,-4.13319,4193.728
25,-4.166523,-0.1648938,0.005147249,0,0,0,0,0,4.166657,18.05311,0.1648938,0,19.90988,-4.166523,4218.011
25.2,-4.199723,-0.1664434,0.00519562,0,0,0,0,0,4.199857,18.19695,0.1664434,0,20.08557,-4.199723,4250.176
25.4,-4.233056,-0.1679722,0.005243343,0,0,0,0,0,4.23319,18.34138,0.1679722,0,20.26227,-4.233056,4281.642
25.6,-4.26639,-0.1696384,0.005295353,0,0,0,0,0,4.266523,18.4858,0.1696384,0,20.4393,-4.26639,4316.464
25.8,-4.299989,-0.1713611,0.005349128,0,0,0,0,0,4.300123,18.63138,0.1713611,0,20.61805,-4.299989,4352.512
26,-4.333323,-0.1728549,0.005395758,0,0,0,0,0,4.333456,18.77581,0.1728549,0,20.7957,-4.333323,4382.661
26.2,-4.366389,-0.1742658,0.005439801,0,0,0,0,0,4.366523,18.91908,0.1742658,0,20.97225,-4.366389,4410.641
26.4,-4.399723,-0.1757538,0.005486249,0,0,0,0,0,4.399856,19.0635,0.1757538,0,21.15053,-4.399723,4440.377
26.6,-4.433189,-0.1776091,0.005544163,0,0,0,0,0,4.433322,19.2085,0.1776091,0,21.32984,-4.433189,4479.213
26.8,-4.466522,-0.1794236,0.005600803,0,0,0,0,0,4.466656,19.35293,0.1794236,0,21.50877,-4.466522,4516.884
27,-4.499722,-0.1809973,0.005649927,0,0,0,0,0,4.499856,19.49677,0.1809973,0,21.68729,-4.499722,4548.373
27.2,-4.533323,-0.1826205,0.005700598,0,0,0,0,0,4.533456,19.64236,0.1826205,0,21.8683,-4.533323,4580.866
27.4,-4.566789,-0.1842502,0.005751468,0,0,0,0,0,4.566922,19.78736,0.1842502,0,22.04891,-4.566789,4613.404
27.6,-4.599855,-0.1855225,0.005791183,0,0,0,0,0,4.599988,19.93063,0.1855225,0,22.22768,-4.599855,4636.964
27.8,-4.633056,-0.1867038,0.005828058,0,0,0,0,0,4.633189,20.07447,0.1867038,0,22.40749,-4.633056,4658.106
28,-4.666522,-0.1881454,0.005873061,0,0,0,0,0,4.666656,20.21948,0.1881454,0,22.58908,-4.666522,4685.559
28.2,-4.699855,-0.1891856,0.00590553,0,0,0,0,0,4.699988,20.3639,0.1891856,0,22.77027,-4.699855,4702.934
28.4,-4.733055,-0.1904023,0.005943511,0,0,0,0,0,4.733189,20.50775,0.1904023,0,22.95106,-4.733055,4724.631
28.6,-4.766388,-0.1918435,0.005988498,0,0,0,0,0,4.766522,20.65217,0.1918435,0,23.13291,-4.766388,4751.743
28.8,-4.799722,-0.1932009,0.006030869,0,0,0,0,0,4.799855,20.7966,0.1932009,0,23.31509,-4.799722,4776.654
29,-4.833188,-0.1948613,0.006082701,0,0,0,0,0,4.833322,20.9416,0.1948613,0,23.49834,-4.833188,4808.886
29.2,-4.866655,-0.1963671,0.006129705,0,0,0,0,0,4.866789,21.08661,0.1963671,0,23.68192,-4.866655,4837.159
29.4,-4.899722,-0.1980316,0.006181662,0,0,0,0,0,4.899855,21.22987,0.1980316,0,23.86364,-4.899722,4869.303
29.6,-4.933055,-0.1993761,0.006223631,0,0,0,0,0,4.933188,21.3743,0.1993761,0,24.04716,-4.933055,4893.374
29.8,-4.966521,-0.2011469,0.006278908,0,0,0,0,0,4.966654,21.5193,0.2011469,0,24.23174,-4.966521,4927.731
30,-4.999721,-0.2027214,0.006328059,0,0,0,0,0,4.999855,21.66315,0.2027214,0,24.4152,-4.999721,4957.202
30.2,-5.033054,-0.2041346,0.006372171,0,0,0,0,0,5.033188,21.80757,0.2041346,0,24.59974,-5.033054,4982.555
30.4,-5.066521,-0.2056173,0.006418455,0,0,0,0,0,5.066655,21.95258,0.2056173,0,24.78535,-5.066521,5009.439
30.6,-5.100121,-0.2068794,0.006457853,0,0,0,0,0,5.100254,22.09815,0.2068794,0,24.97205,-5.100121,5030.787
30.8,-5.133187,-0.2082754,0.006501429,0,0,0,0,0,5.133321,22.24142,0.2082754,0,25.15613,-5.133187,5055.419
31,-5.166388,-0.2094333,0.006537572,0,0,0,0,0,5.166521,22.38527,0.2094333,0,25.3413,-5.166388,5074.118
31.2,-5.199854,-0.2106174,0.006574535,0,0,0,0,0,5.199987,22.53027,0.2106174,0,25.52829,-5.199854,5093.275
31.4,-5.233054,-0.2118134,0.006611869,0,0,0,0,0,5.233187,22.67412,0.2118134,0,25.71415,-5.233054,5112.686
31.6,-5.266387,-0.2131069,0.006652246,0,0,0,0,0,5.266521,22.81855,0.2131069,0,25.9011,-5.266387,5134.3
31.8,-5.299587,-0.2145564,0.006697493,0,0,0,0,0,5.299721,22.96239,0.2145564,0,26.08765,-5.299587,5159.588
32,-5.333054,-0.2159553,0.006741161,0,0,0,0,0,5.333187,23.1074,0.2159553,0,26.27605,-5.333054,5183.454
32.2,-5.36652,-0.2171307,0.006777852,0,0,0,0,0,5.366653,23.2524,0.2171307,0,26.46481,-5.36652,5201.839
32.4,-5.399987,-0.21849,0.006820281,0,0,0,0,0,5.40012,23.3974,0.21849,0,26.65392,-5.399987,5224.513
32.6,-5.433053,-0.2197946,0.006861007,0,0,0,0,0,5.433187,23.54067,0.2197946,0,26.84112,-5.433053,5245.88
32.8,-5.466387,-0.2209084,0.006895776,0,0,0,0,0,5.46652,23.68509,0.2209084,0,27.03019,-5.466387,5262.505
33,-5.499853,-0.2221171,0.006933504,0,0,0,0,0,5.499987,23.8301,0.2221171,0,27.22038,-5.499853,5281.244
33.2,-5.533187,-0.2233656,0.006972476,0,0,0,0,0,5.53332,23.97452,0.2233656,0,27.41017,-5.533187,5300.858
33.4,-5.566387,-0.2241591,0.006997246,0,0,0,0,0,5.56652,24.11837,0.2241591,0,27.59956,-5.566387,5309.625
33.6,-5.599853,-0.2255386,0.007040308,0,0,0,0,0,5.599986,24.26337,0.2255386,0,27.79083,-5.599853,5332.092
33.8,-5.633453,-0.2268677,0.007081796,0,0,0,0,0,5.633586,24.40895,0.2268677,0,27.98323,-5.633453,5353.204
34,-5.666653,-0.2281379,0.007121448,0,0,0,0,0,5.666786,24.5528,0.2281379,0,28.17371,-5.666653,5372.934
34.2,-5.699853,-0.2294866,0.007163548,0,0,0,0,0,5.699986,24.69665,0.2294866,0,28.36455,-5.699853,5394.392
34.4,-5.733053,-0.230821,0.007205203,0,0,0,0,0,5.733186,24.84049,0.230821,0,28.55576,-5.733053,5415.395
34.6,-5.766519,-0.231976,0.007241255,0,0,0,0,0,5.766653,24.9855,0.231976,0,28.74887,-5.766519,5431.992
34.8,-5.799719,-0.2333214,0.007283254,0,0,0,0,0,5.799852,25.12934,0.2333214,0,28.94081,-5.799719,5453.02
35,-5.833053,-0.2347667,0.007328369,0,0,0,0,0,5.833186,25.27377,0.2347667,0,29.1339,-5.833053,5476.214
35.2,-5.866386,-0.2362513,0.00737471,0,0,0,0,0,5.866518,25.41819,0.2362513,0,29.32736,-5.866386,5500.192
35.4,-5.899852,-0.2374908,0.007413402,0,0,0,0,0,5.899986,25.5632,0.2374908,0,29.52197,-5.899852,5518.299
35.6,-5.933452,-0.2387502,0.007452716,0,0,0,0,0,5.933586,25.70878,0.2387502,0,29.71774,-5.933452,5536.714
35.8,-5.966385,-0.2403776,0.007503517,0,0,0,0,0,5.966518,25.85147,0.2403776,0,29.90999,-5.966385,5563.748
36,-5.999852,-0.2415309,0.007539515,0,0,0,0,0,5.999985,25.99647,0.2415309,0,30.10574,-5.999852,5579.508
36.2,-6.033185,-0.2428409,0.007580409,0,0,0,0,0,6.033319,26.1409,0.2428409,0,30.30109,-6.033185,5598.822
36.4,-6.066518,-0.2442565,0.007624598,0,0,0,0,0,6.066652,26.28532,0.2442565,0,30.49682,-6.066518,5620.448
36.6,-6.099585,-0.2453238,0.007657913,0,0,0,0,0,6.099718,26.42859,0.2453238,0,30.69137,-6.099585,5634.035
36.8,-6.133185,-0.2459639,0.007677895,0,0,0,0,0,6.133319,26.57417,0.2459639,0,30.88944,-6.133185,5637.558
37,-6.166785,-0.2468829,0.007706582,0,0,0,0,0,6.166918,26.71975,0.2468829,0,31.0879,-6.166785,5647.402
37.2,-6.199985,-0.247801,0.00773524,0,0,0,0,0,6.200118,26.8636,0.247801,0,31.28439,-6.199985,5657.276
37.4,-6.233185,-0.2488871,0.007769144,0,0,0,0,0,6.233318,27.00744,0.2488871,0,31.48127,-6.233185,5670.896
37.6,-6.266518,-0.2500179,0.007804443,0,0,0,0,0,6.266651,27.15187,0.2500179,0,31.67933,-6.266518,5685.391
37.8,-6.299851,-0.2510813,0.007837637,0,0,0,0,0,6.299985,27.2963,0.2510813,0,31.87779,-6.299851,5698.253
38,-6.333051,-0.2521287,0.007870334,0,0,0,0,0,6.333185,27.44014,0.2521288,0,32.07583,-6.333051,5710.703
38.2,-6.366385,-0.2532015,0.00790382,0,0,0,0,0,6.366518,27.58457,0.2532015,0,32.27507,-6.366385,5723.586
38.4,-6.399718,-0.2543838,0.007940728,0,0,0,0,0,6.399851,27.72899,0.2543838,0,32.47471,-6.399718,5738.844
38.6,-6.433184,-0.2552675,0.007968311,0,0,0,0,0,6.433318,27.87399,0.2552675,0,32.67555,-6.433184,5747.225
38.8,-6.466651,-0.2563549,0.008002257,0,0,0,0,0,6.466784,28.019,0.256355,0,32.87679,-6.466651,5760.105
39,-6.499717,-0.2573565,0.008033521,0,0,0,0,0,6.499851,28.16227,0.2573565,0,33.07603,-6.499717,5771.099
39.2,-6.533051,-0.258699,0.008075426,0,0,0,0,0,6.533184,28.30669,0.2586989,0,33.27728,-6.533051,5789.541
39.4,-6.566518,-0.2594881,0.008100062,0,0,0,0,0,6.566651,28.45169,0.2594881,0,33.47973,-6.566518,5795.457
39.6,-6.599717,-0.2604533,0.008130189,0,0,0,0,0,6.599851,28.59554,0.2604533,0,33.68098,-6.599717,5805.317
39.8,-6.632917,-0.2615352,0.008163961,0,0,0,0,0,6.633051,28.73939,0.2615351,0,33.88264,-6.632917,5817.688
40,-6.666517,-0.2623127,0.008188233,0,0,0,0,0,6.66665,28.88497,0.2623127,0,34.08714,-6.666517,5823.065
40.2,-6.700117,-0.2633607,0.008220945,0,0,0,0,0,6.70025,29.03055,0.2633607,0,34.29206,-6.700117,5834.36
40.4,-6.733317,-0.2642915,0.008250001,0,0,0,0,0,6.73345,29.17439,0.2642915,0,34.49496,-6.733317,5843.113
40.6,-6.766517,-0.2652048,0.00827851,0,0,0,0,0,6.76665,29.31824,0.2652048,0,34.69826,-6.766517,5851.397
40.8,-6.799717,-0.266073,0.008305612,0,0,0,0,0,6.79985,29.46209,0.266073,0,34.90199,-6.799717,5858.605
41,-6.83305,-0.2670761,0.008336923,0,0,0,0,0,6.833184,29.60651,0.2670761,0,35.10695,-6.83305,5868.651
41.2,-6.866383,-0.2676445,0.008354666,0,0,0,0,0,6.866517,29.75094,0.2676445,0,35.31232,-6.866383,5869.074
41.4,-6.899716,-0.2688132,0.008391148,0,0,0,0,0,6.89985,29.89536,0.2688132,0,35.51813,-6.899716,5882.584
41.6,-6.93305,-0.2696617,0.008417633,0,0,0,0,0,6.933183,30.03979,0.2696617,0,35.72435,-6.93305,5888.994
41.8,-6.96665,-0.270752,0.008451669,0,0,0,0,0,6.966783,30.18537,0.270752,0,35.93266,-6.96665,5900.502
42,-6.999983,-0.2718668,0.008486468,0,0,0,0,0,7.000117,30.32979,0.2718668,0,36.13974,-6.999983,5912.54
42.2,-7.03305,-0.2730281,0.008522718,0,0,0,0,0,7.033183,30.47306,0.2730281,0,36.34559,-7.03305,5925.585
42.4,-7.066516,-0.2742886,0.008562068,0,0,0,0,0,7.066649,30.61806,0.2742887,0,36.55437,-7.066516,5940.528
42.6,-7.099849,-0.2753169,0.008594165,0,0,0,0,0,7.099982,30.76249,0.2753169,0,36.76274,-7.099849,5950.386
42.8,-7.133049,-0.2763503,0.008626423,0,0,0,0,0,7.133183,30.90634,0.2763503,0,36.97072,-7.133049,5960.312
43,-7.166249,-0.2763352,0.008625953,0,0,0,0,0,7.166382,31.05018,0.2763352,0,37.17912,-7.166249,5947.578
43.2,-7.199849,-0.2777029,0.008668644,0,0,0,0,0,7.199983,31.19576,0.2777029,0,37.39049,-7.199849,5964.395
43.4,-7.233316,-0.2789434,0.008707367,0,0,0,0,0,7.233449,31.34077,0.2789434,0,37.60146,-7.233316,5978.412
43.6,-7.266515,-0.2790069,0.00870935,0,0,0,0,0,7.266649,31.48461,0.2790069,0,37.81118,-7.266515,5967.245
43.8,-7.299849,-0.2804799,0.008755331,0,0,0,0,0,7.299983,31.62904,0.2804799,0,38.0222,-7.299849,5986.104
44,-7.333315,-0.2820016,0.008802832,0,0,0,0,0,7.333449,31.77404,0.2820016,0,38.23451,-7.333315,6005.817
44.2,-7.366382,-0.2831427,0.008838452,0,0,0,0,0,7.366515,31.91731,0.2831427,0,38.44472,-7.366382,6017.456
44.4,-7.399715,-0.2840738,0.008867516,0,0,0,0,0,7.399848,32.06173,0.2840738,0,38.65707,-7.399715,6024.437
44.6,-7.433182,-0.2844371,0.008878856,0,0,0,0,0,7.433315,32.20674,0.2844371,0,38.87074,-7.433182,6019.266
44.8,-7.466515,-0.2858492,0.008922936,0,0,0,0,0,7.466648,32.35116,0.2858492,0,39.084,-7.466515,6036.263
45,-7.499848,-0.2863127,0.008937404,0,0,0,0,0,7.499982,32.49559,0.2863126,0,39.29773,-7.499848,6033.141
45.2,-7.533315,-0.2876672,0.008979687,0,0,0,0,0,7.533448,32.64059,0.2876672,0,39.51276,-7.533315,6048.664
45.4,-7.566382,-0.2890184,0.009021864,0,0,0,0,0,7.566515,32.78386,0.2890184,0,39.72568,-7.566382,6064.149
45.6,-7.599715,-0.290109,0.009055907,0,0,0,0,0,7.599848,32.92828,0.2901089,0,39.94077,-7.599715,6073.952
45.8,-7.633181,-0.2911463,0.009088289,0,0,0,0,0,7.633315,33.07329,0.2911463,0,40.1572,-7.633181,6082.493
46,-7.666515,-0.2927243,0.009137547,0,0,0,0,0,7.666648,33.21771,0.2927243,0,40.37323,-7.666515,6102.263
46.2,-7.699581,-0.2939713,0.009176471,0,0,0,0,0,7.699715,33.36098,0.2939713,0,40.58799,-7.699581,6115.11
46.4,-7.733314,-0.295167,0.009213797,0,0,0,0,0,7.733448,33.50714,0.295167,0,40.80756,-7.733314,6126.518
46.6,-7.766648,-0.296565,0.009257437,0,0,0,0,0,7.766781,33.65157,0.296565,0,41.025,-7.766648,6142.164
46.8,-7.799981,-0.2985068,0.00931805,0,0,0,0,0,7.800113,33.79599,0.2985068,0,41.24291,-7.799981,6168.923
47,-7.833181,-0.2994942,0.009348872,0,0,0,0,0,7.833315,33.93984,0.2994942,0,41.46043,-7.833181,6175.88
47.2,-7.866514,-0.3010563,0.009397632,0,0,0,0,0,7.866647,34.08426,0.3010563,0,41.67929,-7.866514,6194.519
47.4,-7.899715,-0.3025419,0.009444007,0,0,0,0,0,7.899848,34.22811,0.3025419,0,41.89776,-7.899715,6211.502
47.6,-7.932914,-0.3035183,0.009474487,0,0,0,0,0,7.933048,34.37196,0.3035183,0,42.11671,-7.932914,6217.92
47.8,-7.966381,-0.3050283,0.009521622,0,0,0,0,0,7.966514,34.51696,0.3050283,0,42.3379,-7.966381,6235.048
48,-7.999714,-0.3066126,0.009571076,0,0,0,0,0,7.999847,34.66138,0.3066126,0,42.55869,-7.999714,6253.609
48.2,-8.033181,-0.3081069,0.009617723,0,0,0,0,0,8.033314,34.80639,0.3081069,0,42.78087,-8.033181,6270.141
48.4,-8.066647,-0.3093416,0.009656264,0,0,0,0,0,8.06678,34.95139,0.3093416,0,43.00353,-8.066647,6281.266
48.6,-8.099713,-0.3105749,0.009694762,0,0,0,0,0,8.099848,35.09466,0.3105749,0,43.22403,-8.099713,6292.418
48.8,-8.133047,-0.3118911,0.009735847,0,0,0,0,0,8.133181,35.23908,0.311891,0,43.44679,-8.133047,6305.024
49,-8.166513,-0.3133643,0.009781836,0,0,0,0,0,8.166647,35.38408,0.3133643,0,43.67094,-8.166513,6320.623
49.2,-8.199713,-0.3129764,0.009769727,0,0,0,0,0,8.199846,35.52793,0.3129764,0,43.89381,-8.199713,6298.745
49.4,-8.233047,-0.3141618,0.009806731,0,0,0,0,0,8.23318,35.67236,0.3141618,0,44.11808,-8.233047,6308.439
49.6,-8.266646,-0.31546,0.009847254,0,0,0,0,0,8.26678,35.81794,0.31546,0,44.34464,-8.266646,6320.171
49.8,-8.300113,-0.316635,0.009883933,0,0,0,0,0,8.300246,35.96294,0.316635,0,44.57082,-8.300113,6329.38
50,-8.333313,-0.3170138,0.009895756,0,0,0,0,0,8.333447,36.10679,0.3170138,0,44.7957,-8.333313,6322.716
50.2,-8.36638,-0.3178757,0.009922662,0,0,0,0,0,8.366513,36.25006,0.3178757,0,45.02019,-8.36638,6325.691
50.4,-8.399846,-0.3192839,0.009966617,0,0,0,0,0,8.39998,36.39506,0.3192838,0,45.2479,-8.399846,6339.261
50.6,-8.433046,-0.3204619,0.01000339,0,0,0,0,0,8.43318,36.53891,0.320462,0,45.47432,-8.433046,6348.262
50.8,-8.466513,-0.3216441,0.01004029,0,0,0,0,0,8.466646,36.68391,0.3216441,0,45.70307,-8.466513,6357.122
51,-8.499846,-0.3234172,0.01009564,0,0,0,0,0,8.499979,36.82833,0.3234172,0,45.93143,-8.499846,6377.585
51.2,-8.532912,-0.3251736,0.01015047,0,0,0,0,0,8.533046,36.9716,0.3251736,0,46.15848,-8.532912,6397.678
51.4,-8.566646,-0.327017,0.01020801,0,0,0,0,0,8.566779,37.11776,0.327017,0,46.39064,-8.566646,6419.026
51.6,-8.599979,-0.3287358,0.01026167,0,0,0,0,0,8.600112,37.26218,0.3287358,0,46.62058,-8.599979,6437.945
51.8,-8.633045,-0.3304053,0.01031378,0,0,0,0,0,8.633179,37.40545,0.3304053,0,46.8492,-8.633045,6455.863
52,-8.666379,-0.3320898,0.01036636,0,0,0,0,0,8.666512,37.54988,0.3320898,0,47.0802,-8.666379,6473.804
52.2,-8.699846,-0.3337594,0.01041848,0,0,0,0,0,8.699979,37.69488,0.3337594,0,47.31266,-8.699846,6491.245
52.4,-8.733178,-0.3356625,0.01047789,0,0,0,0,0,8.733312,37.83931,0.3356625,0,47.54473,-8.733178,6513.127
52.6,-8.766379,-0.337224,0.01052663,0,0,0,0,0,8.766513,37.98316,0.337224,0,47.77642,-8.766379,6528.282
52.8,-8.799845,-0.3392607,0.0105902,0,0,0,0,0,8.799979,38.12816,0.3392607,0,48.0105,-8.799845,6552.354
53,-8.833446,-0.34116,0.01064949,0,0,0,0,0,8.833579,38.27374,0.34116,0,48.24607,-8.833446,6573.534
53.2,-8.866645,-0.3432511,0.01071477,0,0,0,0,0,8.866779,38.41759,0.3432511,0,48.47939,-8.866645,6598.413
53.4,-8.899712,-0.3454433,0.0107832,0,0,0,0,0,8.899845,38.56086,0.3454433,0,48.7123,-8.899712,6625.104
53.6,-8.933178,-0.3477837,0.01085625,0,0,0,0,0,8.933311,38.70586,0.3477837,0,48.94859,-8.933178,6654.249
53.8,-8.966512,-0.3501482,0.01093006,0,0,0,0,0,8.966645,38.85028,0.3501481,0,49.18449,-8.966512,6683.702
54,-8.999845,-0.3523448,0.01099863,0,0,0,0,0,8.999978,38.99471,0.3523448,0,49.42095,-8.999845,6709.747
54.2,-9.033045,-0.3546431,0.01107038,0,0,0,0,0,9.033178,39.13855,0.3546431,0,49.65703,-9.033045,6737.591
54.4,-9.066378,-0.3566403,0.01113272,0,0,0,0,0,9.066511,39.28298,0.3566402,0,49.89461,-9.066378,6759.454
54.6,-9.099845,-0.3595358,0.0112231,0,0,0,0,0,9.099978,39.42798,0.3595358,0,50.13371,-9.099845,6798.06
54.8,-9.133178,-0.3619747,0.01129923,0,0,0,0,0,9.133312,39.57241,0.3619747,0,50.37244,-9.133178,6827.856
55,-9.166244,-0.3640955,0.01136544,0,0,0,0,0,9.166378,39.71568,0.3640955,0,50.60981,-9.166244,6851.578
55.2,-9.199711,-0.3661954,0.01143099,0,0,0,0,0,9.199843,39.86068,0.3661954,0,50.85062,-9.199711,6874.518
55.4,-9.233311,-0.3684214,0.01150047,0,0,0,0,0,9.233444,40.00626,0.3684214,0,51.09299,-9.233311,6899.563
55.6,-9.266377,-0.3704735,0.01156453,0,0,0,0,0,9.266512,40.14953,0.3704735,0,51.33209,-9.266377,6921.425
55.8,-9.29971,-0.3727865,0.01163673,0,0,0,0,0,9.299844,40.29395,0.3727865,0,51.57368,-9.29971,6947.832
56,-9.333311,-0.3749681,0.01170483,0,0,0,0,0,9.333444,40.43953,0.3749681,0,51.81781,-9.333311,6971.452
56.2,-9.366644,-0.3770185,0.01176883,0,0,0,0,0,9.366776,40.58395,0.3770185,0,52.06059,-9.366644,6992.575
56.4,-9.399843,-0.3790046,0.01183083,0,0,0,0,0,9.399977,40.7278,0.3790046,0,52.30298,-9.399843,7012.395
56.6,-9.433177,-0.3812867,0.01190207,0,0,0,0,0,9.433311,40.87223,0.3812867,0,52.54695,-9.433177,7037.429
56.8,-9.466643,-0.383838,0.01198171,0,0,0,0,0,9.466777,41.01723,0.3838381,0,52.79248,-9.466643,7067.145
57,-9.499843,-0.3865203,0.01206544,0,0,0,0,0,9.499976,41.16108,0.3865203,0,53.03666,-9.499843,7099.173
57.2,-9.53291,-0.3883969,0.01212402,0,0,0,0,0,9.533044,41.30435,0.3883969,0,53.28046,-9.53291,7116.271
57.4,-9.566377,-0.3907677,0.01219802,0,0,0,0,0,9.56651,41.44935,0.3907677,0,53.5278,-9.566377,7142.022
57.6,-9.59971,-0.3931945,0.01227378,0,0,0,0,0,9.599843,41.59377,0.3931945,0,53.77477,-9.59971,7168.65
57.8,-9.633177,-0.3952216,0.01233705,0,0,0,0,0,9.633311,41.73878,0.3952216,0,54.02335,-9.633177,7187.718
58,-9.66651,-0.3971953,0.01239866,0,0,0,0,0,9.666643,41.8832,0.3971952,0,54.27154,-9.66651,7205.706
58.2,-9.699577,-0.3997085,0.01247711,0,0,0,0,0,9.699711,42.02647,0.3997085,0,54.51838,-9.699577,7233.423
58.4,-9.733177,-0.40218,0.01255426,0,0,0,0,0,9.73331,42.17205,0.40218,0,54.7698,-9.733177,7259.873
58.6,-9.76651,-0.4045106,0.01262702,0,0,0,0,0,9.766643,42.31648,0.4045106,0,55.01986,-9.76651,7283.708
58.8,-9.799843,-0.4072282,0.01271185,0,0,0,0,0,9.799977,42.4609,0.4072282,0,55.27056,-9.799843,7314.283
59,-9.833043,-0.4097026,0.01278909,0,0,0,0,0,9.833176,42.60475,0.4097026,0,55.52086,-9.833043,7340.329
59.2,-9.866643,-0.4119228,0.01285839,0,0,0,0,0,9.866776,42.75033,0.4119228,0,55.77483,-9.866643,7361.386
59.4,-9.900243,-0.4143175,0.01293314,0,0,0,0,0,9.900376,42.89591,0.4143175,0,56.02945,-9.900243,7385.354
59.6,-9.933176,-0.4163015,0.01299507,0,0,0,0,0,9.933309,43.0386,0.4163015,0,56.27963,-9.933176,7402.176
59.8,-9.966509,-0.4184966,0.0130636,0,0,0,0,0,9.966643,43.18303,0.4184966,0,56.53352,-9.966509,7422.34
60,-9.999842,-0.4205746,0.01312846,0,0,0,0,0,9.999975,43.32745,0.4205745,0,56.78802,-9.999842,7440.233
60.2,-10.03304,-0.422572,0.01319081,0,0,0,0,0,10.03318,43.4713,0.422572,0,57.04217,-10.03304,7456.595
60.4,-10.06638,-0.4226061,0.01319188,0,0,0,0,0,10.06651,43.61572,0.4226061,0,57.29799,-10.06638,7438.143
60.6,-10.09971,-0.424879,0.01326283,0,0,0,0,0,10.09984,43.76015,0.424879,0,57.55446,-10.09971,7458.993
60.8,-10.13304,-0.426666,0.01331861,0,0,0,0,0,10.13317,43.90457,0.426666,0,57.81159,-10.13304,7471.13
61,-10.16651,-0.4285435,0.01337721,0,0,0,0,0,10.16664,44.04958,0.4285434,0,58.07042,-10.16651,7484.608
61.2,-10.19998,-0.4309866,0.01345348,0,0,0,0,0,10.20011,44.19458,0.4309866,0,58.32991,-10.19998,7507.77
61.4,-10.23304,-0.4330252,0.01351712,0,0,0,0,0,10.23318,44.33785,0.4330252,0,58.58697,-10.23304,7523.917
61.6,-10.26637,-0.4345821,0.01356571,0,0,0,0,0,10.26651,44.48227,0.4345821,0,58.84678,-10.26637,7531.376
61.8,-10.29998,-0.4366552,0.01363043,0,0,0,0,0,10.30011,44.62785,0.4366552,0,59.10935,-10.29998,7547.459
62,-10.33317,-0.4389607,0.01370239,0,0,0,0,0,10.33331,44.7717,0.4389607,0,59.36947,-10.33317,7567.6
62.2,-10.36637,-0.4409646,0.01376495,0,0,0,0,0,10.36651,44.91555,0.4409646,0,59.63026,-10.36637,7582.346
62.4,-10.39997,-0.4434255,0.01384177,0,0,0,0,0,10.40011,45.06113,0.4434255,0,59.8949,-10.39997,7604.51
62.6,-10.43331,-0.4459996,0.01392212,0,0,0,0,0,10.43344,45.20555,0.4459996,0,60.15813,-10.43331,7628.547
62.8,-10.46664,-0.4484725,0.01399931,0,0,0,0,0,10.46677,45.34998,0.4484725,0,60.42205,-10.46664,7650.626
63,-10.49984,-0.451153,0.01408298,0,0,0,0,0,10.49997,45.49382,0.451153,0,60.68562,-10.49984,7676.096
63.2,-10.53304,-0.4536492,0.0141609,0,0,0,0,0,10.53317,45.63767,0.4536492,0,60.94988,-10.53304,7698.197
63.4,-10.56637,-0.4561807,0.01423993,0,0,0,0,0,10.56651,45.7821,0.4561807,0,61.21591,-10.56637,7720.589
63.6,-10.59971,-0.4588845,0.01432433,0,0,0,0,0,10.59984,45.92652,0.4588845,0,61.48263,-10.59971,7745.661
63.8,-10.63317,-0.4614449,0.01440425,0,0,0,0,0,10.63331,46.07153,0.4614449,0,61.75116,-10.63317,7767.992
64,-10.66624,-0.4639172,0.01448143,0,0,0,0,0,10.66637,46.21479,0.4639172,0,62.01717,-10.66624,7788.865
64.2,-10.69997,-0.4666987,0.01456825,0,0,0,0,0,10.70011,46.36095,0.4666986,0,62.28929,-10.69997,7814.27
64.4,-10.73331,-0.4695969,0.01465872,0,0,0,0,0,10.73344,46.50537,0.4695969,0,62.5589,-10.73331,7841.627
64.60001,-10.76637,-0.4724069,0.01474643,0,0,0,0,0,10.76651,46.64864,0.4724069,0,62.82708,-10.76637,7867.423
64.8,-10.79971,-0.475196,0.0148335,0,0,0,0,0,10.79984,46.79307,0.475196,0,63.09815,-10.79971,7892.45
65,-10.83317,-0.4780098,0.01492133,0,0,0,0,0,10.83331,46.93807,0.4780098,0,63.37105,-10.83317,7917.547
65.2,-10.86637,-0.4810212,0.01501534,0,0,0,0,0,10.86651,47.08192,0.4810212,0,63.64251,-10.86637,7945.827
65.4,-10.89971,-0.483959,0.01510704,0,0,0,0,0,10.89984,47.22635,0.483959,0,63.91581,-10.89971,7972.536
65.60001,-10.93317,-0.486735,0.01519369,0,0,0,0,0,10.93331,47.37135,0.486735,0,64.19095,-10.93317,7996.237
65.8,-10.96677,-0.489498,0.01527994,0,0,0,0,0,10.96691,47.51693,0.489498,0,64.46795,-10.96677,8019.383
66,-10.99997,-0.4923421,0.01536872,0,0,0,0,0,11.00011,47.66077,0.4923421,0,64.74241,-10.99997,8043.87
66.20001,-11.03317,-0.4951581,0.01545663,0,0,0,0,0,11.03331,47.80462,0.4951581,0,65.01762,-11.03317,8067.645
66.4,-11.06664,-0.4979507,0.0155438,0,0,0,0,0,11.06677,47.94962,0.4979507,0,65.29581,-11.06664,8090.606
66.60001,-11.09971,-0.5005391,0.0156246,0,0,0,0,0,11.09984,48.09289,0.5005391,0,65.57145,-11.09971,8110.276
66.8,-11.13304,-0.5033274,0.01571163,0,0,0,0,0,11.13317,48.23732,0.5033274,0,65.85007,-11.13304,8132.764
67,-11.16624,-0.5061335,0.01579923,0,0,0,0,0,11.16637,48.38116,0.5061336,0,66.12835,-11.16624,8155.379
67.20001,-11.19971,-0.5093943,0.01590102,0,0,0,0,0,11.19984,48.52617,0.5093943,0,66.40966,-11.19971,8184.863
67.4,-11.23331,-0.5122742,0.01599091,0,0,0,0,0,11.23344,48.67175,0.5122742,0,66.69288,-11.23331,8207.858
67.60001,-11.26651,-0.5152774,0.01608466,0,0,0,0,0,11.26664,48.8156,0.5152774,0,66.97353,-11.26651,8232.837
67.8,-11.29971,-0.5184292,0.01618305,0,0,0,0,0,11.29984,48.95944,0.5184292,0,67.25496,-11.29971,8259.917
68,-11.33304,-0.521252,0.01627116,0,0,0,0,0,11.33317,49.10387,0.521252,0,67.53832,-11.33304,8281.391
68.20001,-11.36651,-0.5241747,0.0163624,0,0,0,0,0,11.36664,49.24887,0.5241747,0,67.82363,-11.36651,8304.101
68.4,-11.39984,-0.5269012,0.0164475,0,0,0,0,0,11.39997,49.3933,0.5269012,0,68.10861,-11.39984,8323.54
68.60001,-11.43291,-0.5294163,0.01652601,0,0,0,0,0,11.43304,49.53656,0.5294163,0,68.39211,-11.43291,8339.594
68.8,-11.46664,-0.5324917,0.01662201,0,0,0,0,0,11.46677,49.68272,0.5324917,0,68.68217,-11.46664,8363.745
69,-11.50011,-0.5357193,0.01672276,0,0,0,0,0,11.50024,49.82772,0.5357193,0,68.97076,-11.50011,8390.192
69.20001,-11.53331,-0.5390076,0.01682541,0,0,0,0,0,11.53344,49.97157,0.5390076,0,69.25787,-11.53331,8417.49
69.4,-11.5665,-0.5423623,0.01693013,0,0,0,0,0,11.56664,50.11542,0.5423623,0,69.54582,-11.5665,8445.525
69.60001,-11.59984,-0.5459208,0.01704121,0,0,0,0,0,11.59997,50.25985,0.5459208,0,69.83577,-11.59984,8476.325
69.8,-11.63304,-0.5493235,0.01714743,0,0,0,0,0,11.63317,50.40369,0.5493235,0,70.12538,-11.63304,8504.491
70,-11.66637,-0.5529301,0.01726001,0,0,0,0,0,11.6665,50.54811,0.5529301,0,70.417,-11.66637,8535.4
70.20001,-11.6997,-0.5564564,0.01737009,0,0,0,0,0,11.69984,50.69254,0.5564564,0,70.70947,-11.6997,8564.749
70.4,-11.73304,-0.5600291,0.01748161,0,0,0,0,0,11.73317,50.83697,0.5600291,0,71.00282,-11.73304,8594.489
70.60001,-11.76664,-0.5636983,0.01759615,0,0,0,0,0,11.76677,50.98254,0.5636984,0,71.29937,-11.76664,8625.183
70.8,-11.79997,-0.563632,0.01759407,0,0,0,0,0,11.80011,51.12697,0.563632,0,71.59445,-11.79997,8598.757
71,-11.83304,-0.5673621,0.01771051,0,0,0,0,0,11.83317,51.27024,0.5673621,0,71.88803,-11.83304,8630.291
71.20001,-11.86637,-0.5714997,0.01783967,0,0,0,0,0,11.8665,51.41467,0.5714996,0,72.18484,-11.86637,8667.463
71.4,-11.89997,-0.5756842,0.01797029,0,0,0,0,0,11.9001,51.56025,0.5756842,0,72.48493,-11.89997,8704.765
71.60001,-11.93304,-0.5795108,0.01808974,0,0,0,0,0,11.93317,51.70351,0.5795108,0,72.78114,-11.93304,8736.709
71.8,-11.96637,-0.5828992,0.01819551,0,0,0,0,0,11.9665,51.84794,0.5828992,0,73.08062,-11.96637,8761.514
72,-11.99984,-0.5865778,0.01831034,0,0,0,0,0,11.99997,51.99294,0.5865778,0,73.38221,-11.99984,8790.257
72.20001,-12.03344,-0.5905301,0.01843371,0,0,0,0,0,12.03357,52.13852,0.5905302,0,73.68593,-12.03344,8822.648
72.4,-12.0665,-0.594172,0.0185474,0,0,0,0,0,12.06664,52.28179,0.594172,0,73.98571,-12.0665,8850.486
72.60001,-12.09984,-0.594316,0.0185519,0,0,0,0,0,12.09997,52.42622,0.5943161,0,74.28884,-12.09984,8825.838
72.8,-12.13317,-0.5983659,0.01867831,0,0,0,0,0,12.1333,52.57064,0.5983658,0,74.59288,-12.13317,8859.004
73,-12.1665,-0.6028077,0.01881697,0,0,0,0,0,12.16664,52.71507,0.6028077,0,74.89784,-12.1665,8897.59
73.20001,-12.19984,-0.6071913,0.0189538,0,0,0,0,0,12.19997,52.85949,0.6071913,0,75.20374,-12.19984,8934.919
73.4,-12.23304,-0.6114115,0.01908554,0,0,0,0,0,12.23317,53.00333,0.6114115,0,75.50935,-12.23304,8969.567
73.60001,-12.26637,-0.6156554,0.01921801,0,0,0,0,0,12.2665,53.14776,0.6156554,0,75.81714,-12.26637,9004.07
73.8,-12.29984,-0.6200377,0.01935481,0,0,0,0,0,12.29997,53.29276,0.6200377,0,76.12711,-12.29984,9040.097
74,-12.3333,-0.624232,0.01948574,0,0,0,0,0,12.33344,53.43777,0.624232,0,76.43804,-12.3333,9072.994
74.20001,-12.36637,-0.6286722,0.01962434,0,0,0,0,0,12.3665,53.58104,0.6286722,0,76.74621,-12.36637,9109.415
74.4,-12.3997,-0.6333647,0.01977082,0,0,0,0,0,12.39984,53.72546,0.6333647,0,77.05783,-12.3997,9148.856
74.60001,-12.43317,-0.636995,0.01988414,0,0,0,0,0,12.4333,53.87046,0.636995,0,77.37168,-12.43317,9172.461
74.8,-12.4665,-0.6414195,0.02002225,0,0,0,0,0,12.46664,54.01489,0.6414195,0,77.68525,-12.4665,9207.256
75,-12.49957,-0.6456384,0.02015395,0,0,0,0,0,12.4997,54.15816,0.6456384,0,77.9973,-12.49957,9238.941
75.20001,-12.5333,-0.6506385,0.02031003,0,0,0,0,0,12.53344,54.30431,0.6506385,0,78.31663,-12.5333,9280.808
75.4,-12.5669,-0.6557559,0.02046977,0,0,0,0,0,12.56704,54.4499,0.6557559,0,78.63574,-12.5669,9324.003
75.60001,-12.59997,-0.6602897,0.0206113,0,0,0,0,0,12.6001,54.59317,0.6602897,0,78.95075,-12.59997,9358.938
75.8,-12.63317,-0.6644932,0.02074251,0,0,0,0,0,12.6333,54.73701,0.6644932,0,79.26805,-12.63317,9388.681
76,-12.6665,-0.6680157,0.02085247,0,0,0,0,0,12.66664,54.88144,0.6680157,0,79.58764,-12.6665,9408.335
76.20001,-12.69957,-0.6719079,0.02097397,0,0,0,0,0,12.6997,55.0247,0.6719078,0,79.90568,-12.69957,9433.103
76.4,-12.73304,-0.6762203,0.02110858,0,0,0,0,0,12.73317,55.16971,0.6762203,0,80.22861,-12.73304,9463.038
76.60001,-12.76637,-0.6807044,0.02124855,0,0,0,0,0,12.7665,55.31413,0.6807044,0,80.55129,-12.76637,9495.1
76.8,-12.79957,-0.6851943,0.02138871,0,0,0,0,0,12.7997,55.45798,0.6851943,0,80.87372,-12.79957,9526.962
77,-12.83317,-0.6898983,0.02153555,0,0,0,0,0,12.8333,55.60356,0.6898983,0,81.20109,-12.83317,9561.015
77.20001,-12.86663,-0.6946624,0.02168426,0,0,0,0,0,12.86677,55.74856,0.6946625,0,81.52823,-12.86663,9595.597
77.4,-12.89957,-0.6993009,0.02182905,0,0,0,0,0,12.8997,55.89125,0.6993009,0,81.85121,-12.89957,9628.522
77.60001,-12.93317,-0.70433,0.02198604,0,0,0,0,0,12.9333,56.03684,0.70433,0,82.18182,-12.93317,9665.757
77.8,-12.96663,-0.7094257,0.0221451,0,0,0,0,0,12.96677,56.18184,0.7094257,0,82.51219,-12.96663,9703.577
78,-12.99983,-0.7141959,0.02229401,0,0,0,0,0,12.99997,56.32568,0.7141958,0,82.841,-12.99983,9736.755
78.20001,-13.0329,-0.7186908,0.02243432,0,0,0,0,0,13.03303,56.46895,0.7186908,0,83.16958,-13.0329,9765.895
78.4,-13.0665,-0.7238729,0.02259608,0,0,0,0,0,13.06663,56.61454,0.7238728,0,83.50457,-13.0665,9803.414
78.60001,-13.1001,-0.7293841,0.02276812,0,0,0,0,0,13.10023,56.76012,0.7293841,0,83.84069,-13.1001,9844.907
78.8,-13.1333,-0.7341788,0.02291778,0,0,0,0,0,13.13344,56.90396,0.7341788,0,84.17392,-13.1333,9876.657
79,-13.16637,-0.7389094,0.02306545,0,0,0,0,0,13.1665,57.04723,0.7389094,0,84.50691,-13.16637,9907.25
79.20001,-13.19997,-0.7439032,0.02322134,0,0,0,0,0,13.2001,57.19281,0.7439032,0,84.84641,-13.19997,9940.402
79.4,-13.23317,-0.7488132,0.02337461,0,0,0,0,0,13.2333,57.33666,0.7488133,0,85.18302,-13.23317,9972.388
79.60001,-13.2665,-0.7537366,0.02352829,0,0,0,0,0,13.26663,57.48108,0.7537366,0,85.52211,-13.2665,10003.97
79.8,-13.2997,-0.7589848,0.02369212,0,0,0,0,0,13.29983,57.62493,0.7589847,0,85.861,-13.2997,10039.55
80,-13.3329,-0.7643641,0.02386004,0,0,0,0,0,13.33303,57.76878,0.7643641,0,86.20104,-13.3329,10076.38
80.20001,-13.3665,-0.7699814,0.02403538,0,0,0,0,0,13.36663,57.91436,0.7699814,0,86.54636,-13.3665,10115.45
80.4,-13.39997,-0.7755966,0.02421067,0,0,0,0,0,13.4001,58.05936,0.7755966,0,86.89149,-13.39997,10154.11
80.60001,-13.43303,-0.7811459,0.02438389,0,0,0,0,0,13.43317,58.20263,0.7811459,0,87.23367,-13.43303,10191.82
80.8,-13.4665,-0.7867579,0.02455907,0,0,0,0,0,13.46663,58.34763,0.7867579,0,87.5812,-13.4665,10229.43
81.00001,-13.49983,-0.7924573,0.02473698,0,0,0,0,0,13.49997,58.49206,0.7924573,0,87.92854,-13.49983,10267.81
81.20001,-13.53317,-0.7982317,0.02491723,0,0,0,0,0,13.5333,58.63648,0.7982317,0,88.27709,-13.53317,10306.64
81.4,-13.56623,-0.8029706,0.02506516,0,0,0,0,0,13.56637,58.77975,0.8029706,0,88.62406,-13.56623,10331.92
81.60001,-13.59983,-0.8081922,0.02522815,0,0,0,0,0,13.59997,58.92533,0.8081922,0,88.97786,-13.59983,10362.38
81.8,-13.63343,-0.8140104,0.02540977,0,0,0,0,0,13.63357,59.07092,0.8140104,0,89.33292,-13.63343,10399.99
82.00001,-13.66663,-0.8195167,0.02558165,0,0,0,0,0,13.66677,59.21476,0.8195167,0,89.68499,-13.66663,10433.54
82.20001,-13.6997,-0.8249067,0.02574991,0,0,0,0,0,13.69983,59.35803,0.8249066,0,90.0369,-13.6997,10465.27
82.4,-13.73317,-0.8309213,0.02593766,0,0,0,0,0,13.7333,59.50303,0.8309213,0,90.39431,-13.73317,10503.96
82.60001,-13.76637,-0.8366901,0.02611773,0,0,0,0,0,13.7665,59.64688,0.8366901,0,90.75014,-13.76637,10539.32
82.8,-13.79983,-0.8421181,0.02628717,0,0,0,0,0,13.79997,59.79188,0.8421181,0,91.11013,-13.79983,10569.58
83.00001,-13.83303,-0.8481633,0.02647587,0,0,0,0,0,13.83317,59.93573,0.8481634,0,91.46852,-13.83303,10607.37
83.20001,-13.86637,-0.8544228,0.02667127,0,0,0,0,0,13.8665,60.08015,0.8544228,0,91.82966,-13.86637,10647.13
83.4,-13.89983,-0.8604757,0.02686021,0,0,0,0,0,13.89997,60.22516,0.8604757,0,92.19357,-13.89983,10683.61
83.60001,-13.9333,-0.8668243,0.02705839,0,0,0,0,0,13.93343,60.37016,0.8668243,0,92.55877,-13.9333,10723.2
83.8,-13.96637,-0.8733006,0.02726055,0,0,0,0,0,13.9665,60.51343,0.8733006,0,92.92095,-13.96637,10764.26
84.00001,-13.9997,-0.8796683,0.02745932,0,0,0,0,0,13.99983,60.65785,0.8796683,0,93.28737,-13.9997,10803.09
84.20001,-14.0333,-0.8864879,0.0276722,0,0,0,0,0,14.03343,60.80343,0.8864879,0,93.6581,-14.0333,10846.55
84.4,-14.0665,-0.8930575,0.02787727,0,0,0,0,0,14.06663,60.94728,0.8930575,0,94.02577,-14.0665,10886.83
84.60001,-14.0997,-0.8990822,0.02806533,0,0,0,0,0,14.09983,61.09113,0.8990822,0,94.39478,-14.0997,10919.91
84.8,-14.1333,-0.9059545,0.02827986,0,0,0,0,0,14.13343,61.23671,0.9059545,0,94.76964,-14.1333,10962.2
85.00001,-14.16677,-0.9126726,0.02848956,0,0,0,0,0,14.1669,61.38171,0.9126726,0,95.14443,-14.16677,11002.18
85.20001,-14.19997,-0.9195187,0.02870327,0,0,0,0,0,14.2001,61.52556,0.9195186,0,95.5176,-14.19997,11043.42
85.4,-14.23317,-0.9261969,0.02891173,0,0,0,0,0,14.2333,61.66941,0.9261969,0,95.89219,-14.23317,11082.04
85.60001,-14.2665,-0.9333842,0.02913609,0,0,0,0,0,14.26663,61.81383,0.9333842,0,96.26967,-14.2665,11125.96
85.8,-14.29983,-0.9397878,0.02933598,0,0,0,0,0,14.29996,61.95825,0.9397878,0,96.6486,-14.29983,11159.92
86.00001,-14.33303,-0.9467089,0.02955203,0,0,0,0,0,14.33317,62.1021,0.9467089,0,97.02745,-14.33303,11199.6
86.20001,-14.36637,-0.9540237,0.02978036,0,0,0,0,0,14.3665,62.24653,0.9540237,0,97.40928,-14.36637,11243.12
86.4,-14.3997,-0.9612459,0.03000581,0,0,0,0,0,14.39983,62.39095,0.9612459,0,97.79255,-14.3997,11284.9
86.60001,-14.4333,-0.9684347,0.03023021,0,0,0,0,0,14.43343,62.53653,0.9684347,0,98.18039,-14.4333,11325.28
86.8,-14.46663,-0.9759006,0.03046326,0,0,0,0,0,14.46676,62.68095,0.9759007,0,98.56664,-14.46663,11368.6
87.00001,-14.49956,-0.9833382,0.03069543,0,0,0,0,0,14.4997,62.82365,0.9833382,0,98.94973,-14.49956,11411.44
87.20001,-14.53303,-0.9908211,0.03092901,0,0,0,0,0,14.53316,62.96865,0.9908211,0,99.34053,-14.53303,11453.43
87.4,-14.5665,-0.9983359,0.03116359,0,0,0,0,0,14.56663,63.11366,0.9983359,0,99.73288,-14.5665,11495.11
87.60001,-14.59983,-1.006481,0.03141783,0,0,0,0,0,14.59996,63.25808,1.006481,0,100.1252,-14.59983,11543.52
87.8,-14.6329,-1.013555,0.03163866,0,0,0,0,0,14.63303,63.40135,1.013555,0,100.5159,-14.6329,11579.32
88.00001,-14.66663,-1.021509,0.03188696,0,0,0,0,0,14.66676,63.5475,1.021509,0,100.916,-14.66663,11623.59
88.20001,-14.7001,-1.029392,0.03213302,0,0,0,0,0,14.70023,63.6925,1.029392,0,101.3146,-14.7001,11666.69
88.4,-14.7333,-1.036455,0.0323535,0,0,0,0,0,14.73343,63.83636,1.036455,0,101.7116,-14.7333,11700.2
88.60001,-14.76636,-1.043887,0.03258549,0,0,0,0,0,14.7665,63.97963,1.043887,0,102.1085,-14.76636,11737.41
88.8,-14.7997,-1.052384,0.03285072,0,0,0,0,0,14.79983,64.12405,1.052384,0,102.5103,-14.7997,11785.51
89.00001,-14.8329,-1.06014,0.03309284,0,0,0,0,0,14.83303,64.2679,1.06014,0,102.9121,-14.8329,11824.77
89.20001,-14.86636,-1.068368,0.03334967,0,0,0,0,0,14.8665,64.4129,1.068368,0,103.3187,-14.86636,11868.18
89.25001,-14.87476,-1.07073,0.0334234,0,0,0,0,0,14.8749,64.4493,1.07073,0,103.421,-14.87476,11882.26