File: FirefighterJacket/data/DMA/dma1.csv
Time,Sample,Program Temperature,Frequency,Raw Dynamic Force,Raw Static Force,In-Phase Angle,Out-Of-Phase Angle,Zero Displacement,Min Displacement,Max Displacement,Spring     ,C*     ,Measured     ,Corrected     ,Corrected     ,Stiffness*,Total     ,Stiffness     ,Inertia     ,Sample     ,Ratio of     ,Total     ,Sample     ,Total Applied,Static Force,Static     ,Static     ,Static     ,Static Stress,Static     ,Static Strain,Static     ,Dynamic Force,Displacement,Dynamic     ,Dynamic     ,Storage Modulus,Loss Modulus,Tan Delta,Loss Viscosity,Storage     ,Complex Viscosity,Shear Storage Modulus,Shear Loss Modulus,Complex Modulus,Shear Complex Modulus
          ,,,          ,     ,,,,               ,               ,               ,Stiffness     ,          ,Tan Delta     ,Total Tan Delta,Total Delta,          ,Stiffness',Less Spring,          ,Stiffness',Sample to Total,Stiffness'',Stiffness'',Static Force,          ,Force Corrected,Displacement,Displacement Co,          ,Stress Correcte,          ,Strain Correcte,          ,Amplitude     ,Stress     ,Strain     ,,          ,          ,               ,Viscosity     ,Viscosity     ,Modulus     ,Modulus     ,,
0,26.4,27,1.000001,313,2281,939956.875,228894.875,43250612.375,40538.625,43540.875,0.000044,967425,0.243516,0.230069,0.226134,16959,16569.5,14249.8,1.863819,14251.7,0.860018,3822.98,3821.61,1.220025,1.375355,0,0.066961,0,423121,0,0.011852,0,0.701738,0.04678,215886,0.00828,2.47722e+07,6.64269e+06,0.268151,1.05722e+06,3.94261e+06,4.0819e+06,9.17489e+06,2.46026e+06,2.56474e+07,9.49902e+06
1.630014,26.5375,30.26,1.000001,332,2296,983231.625,224819.625,43681263.125,40876,44000.25,0.000044,1.00861e+06,0.228654,0.215293,0.212056,17254,16911.9,14596.1,1.863819,14597.9,0.863082,3651.51,3650.14,1.298232,1.421756,0.0464,0.05334,0.013622,437396,14274.8,0.009441,0.002411,0.746987,0.048922,229807,0.008659,2.5374e+07,6.34465e+06,0.250045,1.00978e+06,4.0384e+06,4.16273e+06,9.39779e+06,2.34987e+06,2.61552e+07,9.68712e+06
3.196776,31.55,33.3936,1.000001,332,2296,986470.875,222838.375,43705200.125,40904.25,44023.375,0.000044,1.01133e+06,0.225895,0.212549,0.209432,17207.6,16875.8,14560.2,1.863819,14562.1,0.862801,3597.26,3595.88,1.298232,1.419992,0.044636,0.052583,0.014379,436853,13732.1,0.009307,0.002545,0.746744,0.049081,229732,0.008687,2.53117e+07,6.25035e+06,0.246935,994773,4.02848e+06,4.14949e+06,9.37471e+06,2.31494e+06,2.6072e+07,9.6563e+06
4.759898,36.2,36.5198,1.000001,332,2296,984385.375,220311.875,43726953.125,40920.625,44042,0.000044,1.00874e+06,0.223807,0.210472,0.207445,17251.7,16926.4,14611,1.863819,14612.9,0.863222,3572.82,3571.45,1.298232,1.418389,0.043033,0.051894,0.015067,436360,13239,0.009185,0.002667,0.747108,0.048976,229844,0.008668,2.54e+07,6.20787e+06,0.244404,988012,4.04253e+06,4.16152e+06,9.4074e+06,2.29921e+06,2.61476e+07,9.6843e+06
6.333941,39.6625,39.6679,1.000001,332,2296,978126.25,218908.5,43763674.75,40968.5,44066.875,0.000044,1.00232e+06,0.223804,0.21047,0.207442,17362.1,17035,14719.9,1.863819,14721.8,0.864112,3595.77,3594.4,1.298232,1.415684,0.040329,0.050733,0.016228,435528,12406.9,0.008979,0.002872,0.747879,0.048664,230081,0.008613,2.55893e+07,6.24776e+06,0.244155,994361,4.07266e+06,4.1923e+06,9.47753e+06,2.31398e+06,2.6341e+07,9.75592e+06
7.892123,42.825,42.7842,1.000001,332,2296,971254.625,215956.125,43816956.375,41034.25,44107.625,0.000044,994974,0.222348,0.209022,0.206055,17490.4,17166.2,14851.6,1.863819,14853.4,0.865176,3598.6,3597.23,1.298232,1.411761,0.036405,0.049048,0.017914,434321,11199.9,0.008681,0.003171,0.7488,0.04832,230364,0.008552,2.58181e+07,6.25268e+06,0.242182,995145,4.10908e+06,4.22787e+06,9.56227e+06,2.31581e+06,2.65645e+07,9.8387e+06
9.484894,45.9375,45.9698,1.000001,338,2300,966612.625,215221.625,43940494.375,41151,44223,0.000044,990283,0.222656,0.209328,0.206348,17890.8,17559.2,15245.6,1.863819,15247.4,0.868249,3686.63,3685.26,1.319087,1.423527,0.048171,0.04514,0.021821,437941,14819.7,0.007989,0.003862,0.76504,0.048086,235361,0.008511,2.6503e+07,6.40569e+06,0.241697,1.0195e+06,4.21807e+06,4.33953e+06,9.81591e+06,2.37248e+06,2.72661e+07,1.00986e+07
11.1218,49.3,49.2437,1.000001,351,2309,965547.25,216036,44193916.75,41392.5,44466.75,0.000044,989421,0.223745,0.210411,0.207386,18595.1,18248.4,15936.6,1.863819,15938.5,0.873328,3851.61,3850.24,1.366011,1.451834,0.076479,0.037124,0.029837,446650,23528.4,0.006571,0.005281,0.799112,0.048028,245843,0.008501,2.77042e+07,6.69247e+06,0.241568,1.06514e+06,4409260.721,4.53609e+06,1.02608e+07,2.47869e+06,2.85011e+07,1.0556e+07
12.7931,52.6125,52.5863,1.000001,373,2326,965018.875,218445.375,44604257.875,41772.5,44872.5,0.000044,989434,0.226364,0.213016,0.209879,19760.4,19385.1,17076,1.863819,17077.8,0.880894,4142.98,4141.61,1.454645,1.510398,0.135043,0.024145,0.042817,464666,41545.3,0.004273,0.007578,0.856555,0.047995,263515,0.008495,2.96846e+07,7.19892e+06,0.242514,1.14574e+06,4.72445e+06,4.86139e+06,1.09943e+07,2.66627e+06,3.0545e+07,1.1313e+07
14.4257,55.8,55.8513,1.000001,388,2338,962438.5,218315.75,45028685.75,42180.5,45278.375,0.000044,986889,0.226836,0.213485,0.210328,20608,20217.3,17910.5,1.863819,17912.4,0.88591,4330.98,4329.62,1.517211,1.541939,0.166584,0.01072,0.056241,474370,51248.7,0.001897,0.009954,0.896075,0.04786,275673,0.008471,3.11352e+07,7.52571e+06,0.241711,1.19775e+06,4.95531e+06,5.09801e+06,1.15315e+07,2.7873e+06,3.20318e+07,1.18636e+07
16.0629,59.2,59.1258,1.000001,405,2350,967364.25,219884.25,45444958.25,42568.75,45688.75,0.000044,992040,0.227302,0.213949,0.210771,21399.3,20994.1,18689.1,1.863819,18690.9,0.890216,4507.75,4506.39,1.579776,1.574136,0.19878,0.002447,0.064514,484275,61153.8,0.000433,0.011418,0.939882,0.048099,289150,0.008513,3.24885e+07,7.83297e+06,0.2411,1.24666e+06,5.17069e+06,5.31886e+06,1.20328e+07,2.9011e+06,3.34194e+07,1.23775e+07
17.7045,62.5125,62.4091,1.000001,421,2362,963057.625,218334.875,45850375.125,42960,46078.75,0.000044,987497,0.22671,0.21336,0.210208,22347,21929.7,19626,1.863819,19627.8,0.894959,4696.42,4695.06,1.642342,1.607162,0.231807,0.015271,0.051691,494435,71314.2,0.002703,0.009149,0.982218,0.047877,302175,0.008474,3.4117e+07,8.16093e+06,0.239204,1.29885e+06,5.42989e+06,5.58307e+06,1.26359e+07,3.02256e+06,3.50795e+07,1.29924e+07
19.3098,65.65,65.6196,1.000001,429,2368,961654.625,218262.125,46197445.125,43291.625,46413.75,0.000044,986113,0.226965,0.213614,0.210451,22803.6,22378.2,20075.2,1.863819,20077.1,0.897097,4798.54,4797.17,1.673624,1.613175,0.237819,0.026249,0.040713,496285,73163.9,0.004646,0.007206,1.003275,0.047804,308652,0.008461,3.48979e+07,8.33841e+06,0.238938,1.3271e+06,5.55416e+06,5.71051e+06,1.29251e+07,3.0883e+06,3.58802e+07,1.3289e+07
20.9543,68.825,68.9086,1.000001,446,2381,960691.75,217945.25,46606705.75,43681,46812.625,0.000044,985103,0.226863,0.213512,0.210353,23731.5,23292.6,20990.1,1.863819,20992,0.901157,4993.01,4991.64,1.741403,1.65116,0.275805,0.039194,0.027768,507971,84850,0.006937,0.004915,1.047752,0.047749,322336,0.008451,3.64881e+07,8.67644e+06,0.237788,1.3809e+06,5.80726e+06,5.96918e+06,1.35141e+07,3.2135e+06,3.75055e+07,1.38909e+07
22.52241,72.0375,72.0448,1.000001,455,2387,962705.25,217674.75,46901099.25,43954.5,47099.125,0.000044,987007,0.226107,0.212761,0.209635,24163.7,23722,21419.6,1.863819,21421.5,0.902949,5067.53,5066.17,1.772686,1.661006,0.28565,0.048506,0.018456,511000,87878.9,0.008585,0.003267,1.07102,0.047846,329494,0.008468,3.72347e+07,8.80598e+06,0.2365,1.40151e+06,5.92607e+06,6.08955e+06,1.37906e+07,3.26147e+06,3.82618e+07,1.4171e+07
24.2704,75.5875,75.5408,1.000001,506,2426,967713.875,221975.875,47583388.125,44603.25,47777.25,0.000044,992846,0.229382,0.216016,0.212748,26714.2,26218.3,23915.2,1.863819,23917,0.912161,5688.95,5687.59,1.976024,1.814603,0.439248,0.070087,0.003125,558254,135132,0.012405,0.000553,1.20322,0.048077,370165,0.008509,4.15725e+07,9.88613e+06,0.237805,1.57343e+06,6.61646e+06,6.80097e+06,1.53972e+07,3.66153e+06,4.27318e+07,1.58266e+07
25.6373,78.2375,78.2745,1.000001,506,2426,968050.125,219250.625,47804314.625,44809.375,47984.25,0.000044,992568,0.226487,0.213138,0.209996,26721.6,26241.4,23937.7,1.863819,23939.6,0.91222,5618.07,5616.71,1.976024,1.798471,0.423115,0.077075,0.010113,553290,130169,0.013642,0.00179,1.203297,0.048092,370188,0.008512,4.16117e+07,9.76293e+06,0.23462,1.55382e+06,6.6227e+06,6.80253e+06,1.54117e+07,3.6159e+06,4.27416e+07,1.58302e+07
26.9879,81,80.9757,1.000001,506,2426,961463.375,216495.375,47983216.625,44987.125,48151.75,0.000044,985536,0.225173,0.211831,0.208745,26912.3,26436.5,24132.4,1.863819,24134.2,0.912849,5625.32,5623.95,1.976024,1.785394,0.410038,0.082734,0.015772,549267,126146,0.014643,0.002792,1.204127,0.047762,370444,0.008453,4.195e+07,9.77552e+06,0.233028,1.55582e+06,6.67654e+06,6.85542e+06,1.5537e+07,3.62056e+06,4.30739e+07,1.59533e+07
28.4739,83.9625,83.9478,1.000001,551,2459,966897.25,219897.25,48520276.25,45501.625,48678.5,0.000044,991587,0.227426,0.214071,0.210888,29126.9,28608.4,26302.2,1.863819,26304.1,0.919395,6154.14,6152.77,2.148078,1.918109,0.542753,0.099721,0.03276,590097,166975,0.01765,0.005798,1.320616,0.048017,406281,0.008499,4.57216e+07,1.06947e+07,0.233909,1.70211e+06,7.27682e+06,7.47324e+06,1.69339e+07,3.961e+06,4.69558e+07,1.7391e+07
29.8279,86.65,86.6558,1.000001,551,2459,965198.75,217626.25,48701424.5,45673,48852.125,0.000044,989429,0.225473,0.21213,0.209031,29190.4,28682.6,26375.6,1.863819,26377.4,0.919574,6114.18,6112.82,2.148078,1.904807,0.529451,0.105451,0.03849,586004,162883,0.018664,0.006812,1.320874,0.047931,406360,0.008483,4.58491e+07,1.06253e+07,0.231744,1.69106e+06,7.29711e+06,7.49049e+06,1.69812e+07,3.93528e+06,4.70642e+07,1.74312e+07
31.1835,89.3875,89.3671,1.000001,551,2459,964046.5,216283,48846447.75,45796.25,48990.25,0.000044,988010,0.224349,0.211012,0.207961,29232.3,28730.5,26422.8,1.863819,26424.7,0.919683,6092.18,6090.81,2.148078,1.894144,0.518788,0.110038,0.043077,582724,159603,0.019476,0.007624,1.32103,0.047872,406408,0.008473,4.59312e+07,1.0587e+07,0.230497,1.68497e+06,7.31018e+06,7.50186e+06,1.70116e+07,3.92112e+06,4.71356e+07,1.74576e+07
32.975,93,92.95,1.000001,732,2596,967754.75,222743.5,50289868.75,47234.75,50428.25,0.000044,993058,0.230165,0.216796,0.213492,38637.5,37983.3,35665.4,1.863819,35667.3,0.93898,8288.06,8286.68,2.862367,2.501493,1.126137,0.155694,0.088733,769572,346450,0.027557,0.015705,1.791804,0.047988,551240,0.008493,6.19967e+07,1.44039e+07,0.232333,2.29244e+06,9.86707e+06,1.01299e+07,2.29617e+07,5.33476e+06,6.36479e+07,2.35733e+07
34.4388,95.875,95.8777,1.000001,732,2596,974181.875,218291.875,50650709.625,47566.75,50775.25,0.000044,998339,0.224077,0.210742,0.207702,38433.1,37828.8,35507.6,1.863819,35509.5,0.938643,8023.51,8022.13,2.862367,2.474481,1.099126,0.167108,0.100147,761262,338141,0.029577,0.017725,1.791161,0.048304,551042,0.008549,6.17224e+07,1.3944e+07,0.225915,2.21926e+06,9.82342e+06,1.0071e+07,2.28601e+07,5.16445e+06,6.32779e+07,2.34363e+07
36.00069,99.05,99.0014,1.000001,732,2596,968881.625,214072.125,50886948.125,47796.5,50995.75,0.000044,992249,0.220948,0.207629,0.20472,38669,38086.6,35763.1,1.863819,35764.9,0.938997,7959.16,7957.79,2.862367,2.456727,1.081371,0.17458,0.107619,755800,332678,0.030899,0.019048,1.791836,0.048037,551249,0.008502,6.21664e+07,1.38322e+07,0.222503,2.20146e+06,9.89408e+06,1.0136e+07,2.30246e+07,5.12303e+06,6.36866e+07,2.35876e+07
37.6055,102.2375,102.211,1.000001,747,2606,964765.875,211316.125,51137288.875,48046.375,51234.625,0.000044,987637,0.219034,0.205726,0.202895,39645.7,39069.4,36743.3,1.863819,36745.1,0.940464,8091,8089.62,2.914505,2.489986,1.114631,0.182499,0.115537,766032,342910,0.032301,0.020449,1.831411,0.047825,563424,0.008465,6.38702e+07,1.40613e+07,0.220155,2.23793e+06,1.01652e+07,1.04087e+07,2.36556e+07,5.2079e+06,6.53997e+07,2.42221e+07
39.4967,105.9625,105.993,1.000001,947,2756,968407,212040,52602372.25,49502.875,52687,0.000045,991349,0.218958,0.20565,0.202822,50072.2,49424.3,47080,1.863819,47081.8,0.952568,10249.6,10248.2,3.696572,3.160079,1.784724,0.22884,0.161879,972183,549061,0.040503,0.028651,2.351629,0.047925,723467,0.008482,8.18373e+07,1.78134e+07,0.217668,2.83508e+06,1.30248e+07,1.33298e+07,3.03101e+07,6.59754e+06,8.37536e+07,3.10199e+07
41.0702,109.0875,109.14,1.000001,947,2756,965957.375,207350.375,52945555.625,49832.5,53013.375,0.000045,987961,0.214658,0.201373,0.198716,50243.8,49637.6,47288.3,1.863819,47290.1,0.952672,10080,10078.6,3.696572,3.133443,1.758087,0.239695,0.172734,963988,540867,0.042424,0.030572,2.351885,0.047799,723546,0.00846,8.21994e+07,1.75185e+07,0.213122,2.78816e+06,1.30824e+07,1.33762e+07,3.04442e+07,6.48834e+06,8.40455e+07,3.1128e+07
43.0057,113.1,113.011,1.000001,1217,2959,964765.5,203343.25,54608611.25,51496.625,54656,0.000045,985962,0.21077,0.197505,0.194996,64699.9,64111.4,61734.6,1.863819,61736.4,0.962928,12800,12798.6,4.75497,4.060236,2.684881,0.292299,0.225337,1.24911e+06,825990,0.051734,0.039883,3.054973,0.047627,939847,0.008429,1.0731e+08,2.22465e+07,0.207311,3.54064e+06,1.70789e+07,1.7442e+07,3.97444e+07,8.23945e+06,1.09592e+08,4.05895e+07
44.249,115.5625,115.498,1.000001,1278,3005,957836.75,196840.25,55246198,52139.875,55267.625,0.000046,977853,0.205505,0.192268,0.18995,68506.2,67992.3,65603.6,1.863819,65605.5,0.964869,13223.2,13221.8,4.994804,4.248406,2.87305,0.312466,0.245505,1.307e+06,883879,0.055304,0.043452,3.214563,0.047252,988944,0.008363,1.14035e+08,2.2982e+07,0.201535,3.6577e+06,1.81492e+07,1.85141e+07,4.22352e+07,8.51187e+06,1.16328e+08,4.30844e+07
45.2601,117.5125,117.52,1.000001,1278,3005,948246.625,192263.375,55503379.625,52404,55506.875,0.000046,967542,0.202757,0.189533,0.187311,69236.3,68760.6,66366.8,1.863819,66368.7,0.965188,13184,13182.6,4.994804,4.227362,2.852007,0.320601,0.253639,1.30053e+06,877406,0.056743,0.044892,3.215627,0.046771,989272,0.008278,1.15362e+08,2.29138e+07,0.198626,3.64685e+06,1.83604e+07,1.8719e+07,4.27266e+07,8.48661e+06,1.17615e+08,4.35612e+07
46.2557,119.5,119.511,1.000001,1278,3005,938201.125,188164.875,55709476.625,52624.5,55692.125,0.000046,956884,0.200559,0.187346,0.1852,70007.5,69563.4,67165.6,1.863819,67167.4,0.965531,13185.7,13184.3,4.994804,4.210411,2.835056,0.32712,0.260158,1.29531e+06,872191,0.057897,0.046046,3.216769,0.046269,989623,0.008189,1.1675e+08,2.29168e+07,0.196289,3.64732e+06,1.85813e+07,1.89359e+07,4.32408e+07,8.4877e+06,1.18978e+08,4.40659e+07
47.25773,121.525,121.515,1.000001,1278,3005,929307.375,184675.375,55887606.125,52809.75,55851.25,0.000046,947479,0.198724,0.18552,0.183434,70702.4,70285.5,67884,1.863819,67885.9,0.965833,13194.1,13192.7,4.994804,4.195698,2.820342,0.332754,0.265793,1.29079e+06,867664,0.058895,0.047043,3.217777,0.045824,989933,0.00811,1.17999e+08,2.29315e+07,0.194337,3.64966e+06,1.87801e+07,1.91314e+07,4.37033e+07,8.49315e+06,1.20206e+08,4.45209e+07
48.2574,123.55,123.515,1.000001,1278,3005,919656.75,181446.25,56047842.5,52987.75,55992.125,0.000046,937385,0.197298,0.184101,0.182062,71463.7,71069.5,68664.7,1.863819,68666.6,0.966164,13240.9,13239.5,4.994804,4.182411,2.807056,0.337822,0.270861,1.2867e+06,863577,0.059792,0.04794,3.218878,0.045341,990272,0.008025,1.19356e+08,2.30128e+07,0.192809,3.6626e+06,1.8996e+07,1.93459e+07,4.42059e+07,8.52326e+06,1.21554e+08,4.502e+07
49.2691,125.6,125.538,1.000001,1278,3005,910235.5,178267.75,56198946.25,53150,56125.25,0.000046,927528,0.195848,0.182658,0.180666,72223.2,71852.4,69444.4,1.863819,69446.3,0.966489,13283.5,13282.1,4.994804,4.169838,2.794483,0.342602,0.275641,1.28283e+06,859709,0.060638,0.048786,3.21996,0.04487,990605,0.007942,1.20711e+08,2.30868e+07,0.191257,3.67438e+06,1.92118e+07,1.956e+07,4.47078e+07,8.55069e+06,1.22899e+08,4.55182e+07
50.2857,127.6,127.571,1.000001,1278,3005,901494.25,175778.5,56338319.25,53302.75,56251.25,0.000046,918472,0.194986,0.1818,0.179836,72935.3,72580.3,70169.5,1.863819,70171.3,0.966784,13356.6,13355.2,4.994804,4.158202,2.782846,0.34701,0.280049,1.27925e+06,856129,0.061418,0.049566,3.220945,0.044434,990907,0.007864,1.21971e+08,2.32139e+07,0.190323,3.69461e+06,1.94123e+07,1.97608e+07,4.51746e+07,8.59775e+06,1.24161e+08,4.59855e+07
51.294,129.7,129.588,1.000001,1278,3005,892323.75,173134.75,56467936,53444.75,56367.125,0.000046,908965,0.194027,0.180846,0.178912,73698.2,73360.9,70947.3,1.863819,70949.2,0.9671,13431.1,13429.7,4.994804,4.147347,2.771991,0.35111,0.284149,1.27591e+06,852789,0.062143,0.050292,3.221997,0.043976,991231,0.007783,1.23323e+08,2.33434e+07,0.189286,3.71521e+06,1.96275e+07,1.9976e+07,4.56753e+07,8.6457e+06,1.25513e+08,4.64864e+07
52.2947,131.5875,131.589,1.000001,1278,3005,883971.875,170662.875,56592288.625,53578.75,56472,0.000046,900296,0.193064,0.179887,0.177984,74407.8,74088.5,71672.2,1.863819,71674,0.967387,13494,13492.6,4.994804,4.136902,2.761546,0.355044,0.288082,1.2727e+06,849576,0.06284,0.050988,3.222953,0.043558,991525,0.007709,1.24583e+08,2.34527e+07,0.188249,3.73261e+06,1.9828e+07,2.01763e+07,4.6142e+07,8.68618e+06,1.26772e+08,4.69525e+07
53.3238,133.6875,133.648,1.000001,1278,3005,875012.875,168072.375,56712068.875,53712.625,56582.375,0.000046,891008,0.19208,0.178908,0.177035,75183.4,74883.1,72464.1,1.863819,72466,0.967698,13566.2,13564.8,4.994804,4.126812,2.751457,0.358832,0.291871,1.26959e+06,846472,0.06351,0.051659,3.22399,0.043111,991844,0.00763,1.2596e+08,2.35782e+07,0.187188,3.75259e+06,2.00471e+07,2.03953e+07,4.66518e+07,8.73267e+06,1.28148e+08,4.74621e+07
54.3238,135.6875,135.648,1.000001,1278,3005,866200.125,165689.125,56823702.625,53841.25,56682.25,0.000046,881904,0.191283,0.178115,0.176266,75959.5,75676.1,73254.7,1.863819,73256.6,0.968004,13650.8,13649.4,4.994804,4.117384,2.742028,0.362363,0.295402,1.26669e+06,843571,0.064135,0.052284,3.225009,0.042671,992158,0.007552,1.27334e+08,2.37253e+07,0.186323,3.776e+06,2.02658e+07,2.06146e+07,4.71608e+07,8.78715e+06,1.29526e+08,4.79724e+07
55.3357,137.725,137.671,1.000001,1278,3005,857718.125,163664.125,56934820.125,53961.875,56776.75,0.000046,873193,0.190813,0.177648,0.175813,76717.3,76446.6,74022.7,1.863819,74024.6,0.968294,13755.4,13754,4.994804,4.107974,2.732618,0.365878,0.298917,1.2638e+06,840676,0.064757,0.052906,3.225977,0.042247,992456,0.007477,1.28669e+08,2.3907e+07,0.185802,3.80492e+06,2.04783e+07,2.08288e+07,4.76552e+07,8.85446e+06,1.30871e+08,4.84708e+07
56.3349,139.725,139.67,1.000001,1278,3005,849012.875,161421.375,57041753.125,54085.875,56867.75,0.000046,864222,0.190128,0.176966,0.175152,77513.7,77259.2,74833,1.863819,74834.8,0.968597,13850.1,13848.6,4.994804,4.098895,2.72354,0.36926,0.302299,1.261e+06,837883,0.065356,0.053504,3.226985,0.041813,992766,0.007401,1.30077e+08,2.40716e+07,0.185056,3.83111e+06,2.07025e+07,2.1054e+07,4.81768e+07,8.91542e+06,1.32286e+08,4.89948e+07
57.3559,141.7375,141.712,1.000001,1278,3005,840701.5,159693,57145987.75,54206.375,56962.375,0.000046,855734,0.189952,0.17679,0.174982,78282.5,78037.4,75608.8,1.863819,75610.7,0.96888,13977.5,13976.1,4.994804,4.090024,2.714668,0.372557,0.305596,1.25828e+06,835154,0.065939,0.054088,3.227928,0.041398,993056,0.007327,1.31426e+08,2.42931e+07,0.184843,3.86637e+06,2.09171e+07,2.12714e+07,4.86763e+07,8.99746e+06,1.33652e+08,4.95009e+07
58.348,143.8,143.696,1.000001,1278,3005,832365.375,157247.875,57245259.375,54319.125,57042.625,0.000046,847089,0.188917,0.17576,0.173983,79081.5,78858.2,76427.4,1.863819,76429.3,0.969176,14044.1,14042.6,4.994804,4.081554,2.706199,0.375697,0.308736,1.25567e+06,832548,0.066495,0.054644,3.228912,0.040982,993359,0.007253,1.32849e+08,2.44088e+07,0.183734,3.88478e+06,2.11435e+07,2.14975e+07,4.92033e+07,9.0403e+06,1.35073e+08,5.00269e+07
59.3652,145.7625,145.73,1.000001,1278,3005,824404.125,155736.625,57343140.125,54427.5,57129.875,0.000046,838985,0.188908,0.175751,0.173974,79845.3,79629.6,77196.6,1.863819,77198.4,0.969446,14182.6,14181.1,4.994804,4.073184,2.697828,0.378793,0.311832,1.25309e+06,829973,0.067043,0.055192,3.229814,0.040585,993636,0.007183,1.34186e+08,2.46495e+07,0.183697,3.92309e+06,2.13563e+07,2.17137e+07,4.96985e+07,9.12945e+06,1.36431e+08,5.053e+07
60.3779,147.8125,147.756,1.000001,1278,3005,815741.625,153611.375,57440264.375,54539.125,57213.375,0.000046,830079,0.188309,0.175155,0.173396,80702,80503.3,78068.1,1.863819,78069.9,0.96975,14291.5,14290.1,4.994804,4.064858,2.689503,0.381866,0.314904,1.25053e+06,827412,0.067587,0.055735,3.230827,0.040152,993948,0.007107,1.35701e+08,2.4839e+07,0.183042,3.95324e+06,2.15974e+07,2.19562e+07,5.02595e+07,9.19962e+06,1.37955e+08,5.10945e+07
61.3734,149.675,149.747,1.000001,1278,3005,807411.375,151686.375,57533547.875,54646.375,57295.75,0.000047,821536,0.187868,0.174715,0.172969,81541.2,81357.5,78920.1,1.863819,78921.9,0.970041,14409,14407.5,4.994804,4.056844,2.681489,0.384816,0.317855,1.24807e+06,824947,0.068109,0.056257,3.231796,0.039737,994246,0.007033,1.37182e+08,2.50431e+07,0.182554,3.98573e+06,2.18331e+07,2.21939e+07,5.0808e+07,9.27522e+06,1.39449e+08,5.16477e+07
62.3853,151.8375,151.771,1.000001,1278,3005,798861.625,149993.125,57626817.375,54755,57374.625,0.000047,812821,0.187759,0.174607,0.172864,82415.5,82242.8,79803.2,1.863819,79805,0.970337,14558.9,14557.4,4.994804,4.048813,2.673458,0.387766,0.320805,1.2456e+06,822476,0.068631,0.05678,3.232783,0.03931,994549,0.006958,1.38717e+08,2.53036e+07,0.182412,4.02719e+06,2.20774e+07,2.24417e+07,5.13765e+07,9.3717e+06,1.41006e+08,5.22243e+07
63.3858,153.8,153.772,1.000001,1278,3005,790614.125,148210.625,57717682.625,54856.75,57455.75,0.000047,804386,0.187463,0.174312,0.172578,83279.7,83120.8,80679.1,1.863819,80681,0.970625,14691.6,14690.1,4.994804,4.040972,2.665617,0.39064,0.323679,1.24318e+06,820064,0.06914,0.057288,3.233742,0.038899,994844,0.006885,1.40239e+08,2.55343e+07,0.182077,4.06391e+06,2.23197e+07,2.26867e+07,5.19404e+07,9.45715e+06,1.42545e+08,5.27944e+07
64.4177,155.875,155.835,1.000001,1278,3005,781994.375,146017.125,57811214.125,54968.25,57539.375,0.000047,795510,0.186724,0.173577,0.171865,84208.9,84071.4,81627.5,1.863819,81629.4,0.970931,14799.2,14797.8,4.994804,4.032883,2.657527,0.393599,0.326637,1.2407e+06,817575,0.069664,0.057812,3.234761,0.038468,995158,0.006809,1.41888e+08,2.57214e+07,0.18128,4.09368e+06,2.25821e+07,2.29502e+07,5.2551e+07,9.52644e+06,1.442e+08,5.34075e+07
65.4094,157.875,157.819,1.000001,1278,3005,774237.5,144356,57900470.5,55072.375,57612,0.000047,787580,0.186449,0.173304,0.171599,85056.8,84933.4,82487.4,1.863819,82489.2,0.971201,14929.5,14928,4.994804,4.025146,2.649791,0.396422,0.329461,1.23832e+06,815195,0.070163,0.058312,3.235661,0.038081,995435,0.00674,1.43382e+08,2.59478e+07,0.18097,4.12972e+06,2.282e+07,2.31906e+07,5.31045e+07,9.61031e+06,1.45711e+08,5.39671e+07
66.427,159.925,159.854,1.000001,1278,3005,765789.25,142587.75,57989757.75,55174,57690,0.000047,778951,0.186197,0.173053,0.171355,85999.1,85890.8,83442.7,1.863819,83444.5,0.971498,15078.3,15076.9,4.994804,4.01739,2.642035,0.399246,0.332285,1.23593e+06,812809,0.070663,0.058811,3.236648,0.03766,995739,0.006665,1.45043e+08,2.62065e+07,0.180681,4.17089e+06,2.30843e+07,2.3458e+07,5.37196e+07,9.70611e+06,1.47391e+08,5.45894e+07
67.4267,161.925,161.853,1.000001,1278,3005,757948.25,140966,58077088.5,55273.125,57762.5,0.000047,770945,0.185984,0.17284,0.171149,86892.1,86798.2,84347.9,1.863819,84349.8,0.971771,15221.2,15219.7,4.994804,4.009788,2.634432,0.402009,0.335047,1.23359e+06,810470,0.071152,0.0593,3.237561,0.037269,996019,0.006596,1.46616e+08,2.64548e+07,0.180436,4.21041e+06,2.33347e+07,2.37115e+07,5.43023e+07,9.79808e+06,1.48984e+08,5.51792e+07
68.4431,163.9,163.886,1.000001,1278,3005,749892.125,139189.875,58166026.125,55376.5,57844.375,0.000047,762700,0.185613,0.172471,0.170791,87831.4,87755.2,85302.8,1.863819,85304.7,0.972055,15358.6,15357.1,4.994804,4.002029,2.626673,0.404822,0.33786,1.2312e+06,808083,0.07165,0.059798,3.238505,0.036867,996310,0.006525,1.48276e+08,2.66936e+07,0.180027,4.24842e+06,2.35988e+07,2.39782e+07,5.49171e+07,9.88653e+06,1.5066e+08,5.57999e+07
69.4568,165.9875,165.914,1.000001,1278,3005,742704.125,137657.375,58255090.625,55480.625,57916.625,0.000047,755354,0.185346,0.172205,0.170533,88685.7,88624.8,86170.3,1.863819,86172.1,0.972305,15489.1,15487.6,4.994804,3.994242,2.618886,0.407639,0.340678,1.22881e+06,805687,0.072148,0.060297,3.239338,0.036508,996566,0.006462,1.49784e+08,2.69205e+07,0.179729,4.28452e+06,2.38388e+07,2.42208e+07,5.54755e+07,9.97054e+06,1.52184e+08,5.63644e+07
70.4526,167.9,167.905,1.000001,1278,3005,735542,136315,58342696.25,55574.625,57994.5,0.000047,748067,0.185326,0.172185,0.170513,89549.6,89500.6,87044,1.863819,87045.8,0.972552,15642.6,15641.1,4.994804,3.986566,2.61121,0.41041,0.343449,1.22645e+06,803326,0.072639,0.060787,3.240161,0.036151,996819,0.006398,1.51303e+08,2.71873e+07,0.179688,4.32699e+06,2.40805e+07,2.44662e+07,5.6038e+07,1.00694e+07,1.53726e+08,5.69355e+07
71.4513,169.9625,169.903,1.000001,1278,3005,730475.875,135009.125,58428333.125,55667.5,58071.5,0.000047,742848,0.184824,0.171685,0.170028,90178.7,90146.3,87687.5,1.863819,87689.4,0.972725,15711.3,15709.8,4.994804,3.979046,2.603691,0.413119,0.346157,1.22413e+06,801012,0.073118,0.061267,3.240739,0.035898,996997,0.006354,1.52421e+08,2.73067e+07,0.179153,4.346e+06,2.42586e+07,2.46448e+07,5.64523e+07,1.01136e+07,1.54848e+08,5.73511e+07
72.451,171.875,171.902,1.000001,1278,3005,723641,133853.25,58515912,55757.25,58147.875,0.000047,735916,0.184972,0.171833,0.170171,91028.1,91005.2,88544.3,1.863819,88546.1,0.972959,15876.9,15875.4,4.994804,3.97134,2.595985,0.415889,0.348927,1.22176e+06,798642,0.073609,0.061757,3.241518,0.035558,997237,0.006293,1.5391e+08,2.75946e+07,0.17929,4.39181e+06,2.44956e+07,2.48862e+07,5.70038e+07,1.02202e+07,1.56365e+08,5.79128e+07
73.46835,174.025,173.937,1.000001,1278,3005,715761.125,132295.625,58603663.625,55864.25,58230.875,0.000047,727885,0.184832,0.171694,0.170036,92032.5,92026.2,89563.1,1.863819,89565,0.973236,16044.7,16043.3,4.994804,3.963602,2.588247,0.418665,0.351703,1.21938e+06,796261,0.0741,0.062248,3.242439,0.035164,997520,0.006224,1.55681e+08,2.78863e+07,0.179124,4.43824e+06,2.47774e+07,2.51718e+07,5.76598e+07,1.03283e+07,1.58159e+08,5.85775e+07
74.48417,176.075,175.968,1.000001,1278,3005,710786.75,130660.5,58691947,55962.375,58305.75,0.000047,722696,0.183825,0.170691,0.169062,92693.2,92712.7,90247.5,1.863819,90249.3,0.97341,16071.8,16070.3,4.994804,3.9558,2.580445,0.421457,0.354496,1.21698e+06,793861,0.074594,0.062743,3.24302,0.034916,997699,0.00618,1.56871e+08,2.79334e+07,0.178066,4.44573e+06,2.49668e+07,2.53595e+07,5.81003e+07,1.03457e+07,1.59338e+08,5.90142e+07
75.5432,178.1625,178.086,1.000001,1278,3005,702985.75,129293.25,58784754.25,56069.875,58385.125,0.000047,714777,0.18392,0.170786,0.169154,93720.2,93753.7,91286.1,1.863819,91288,0.973681,16264.1,16262.6,4.994804,3.94758,2.572224,0.424393,0.357431,1.21445e+06,791332,0.075114,0.063262,3.243921,0.034527,997976,0.006111,1.58676e+08,2.82676e+07,0.178146,4.49892e+06,2.52541e+07,2.56517e+07,5.8769e+07,1.04695e+07,1.61174e+08,5.96942e+07
76.5559,180.2125,180.112,1.000001,1278,3005,696545.25,127851.25,58873441.75,56168,58467.125,0.000047,708182,0.183551,0.170418,0.168796,94593,94645.9,92176.1,1.863819,92178,0.973905,16385.9,16384.4,4.994804,3.939707,2.564351,0.427198,0.360236,1.21203e+06,788910,0.07561,0.063759,3.24467,0.034206,998206,0.006054,1.60223e+08,2.84793e+07,0.177747,4.53261e+06,2.55003e+07,2.59e+07,5.93419e+07,1.05479e+07,1.62735e+08,6.02721e+07
77.5483,182.1125,182.097,1.000001,1278,3005,691378.875,126689.625,58961033.125,56264.25,58542.875,0.000047,702890,0.183242,0.170111,0.168498,95305.1,95374.2,92902.2,1.863819,92904,0.974081,16484.1,16482.7,4.994804,3.931914,2.556559,0.429968,0.363007,1.20963e+06,786512,0.076101,0.064249,3.245256,0.033948,998387,0.006008,1.61485e+08,2.86501e+07,0.177416,4.5598e+06,2.57012e+07,2.61025e+07,5.98094e+07,1.06111e+07,1.64007e+08,6.07434e+07
78.5638,184.2375,184.128,1.000001,1278,3005,685473,125260.75,59049600,56364.625,58624.875,0.000047,696824,0.182736,0.169607,0.168008,96134.8,96225.6,93751.3,1.863819,93753.2,0.974287,16584.4,16582.9,4.994804,3.924017,2.548662,0.43277,0.365808,1.2072e+06,784083,0.076596,0.064745,3.245943,0.033653,998598,0.005956,1.62961e+08,2.88243e+07,0.176878,4.58752e+06,2.59361e+07,2.63387e+07,6.0356e+07,1.06757e+07,1.65491e+08,6.12929e+07
79.5776,186.125,186.155,1.000001,1278,3005,680221.875,123951.625,59138153.625,56460.875,58708.875,0.000047,691423,0.182222,0.169096,0.167511,96885.8,96997.3,94520.8,1.863819,94522.6,0.974469,16669,16667.6,4.994804,3.916104,2.540749,0.435571,0.368609,1.20477e+06,781649,0.077092,0.065241,3.246547,0.033391,998784,0.00591,1.64299e+08,2.89715e+07,0.176334,4.61095e+06,2.61489e+07,2.65524e+07,6.08514e+07,1.07302e+07,1.66833e+08,6.17902e+07
80.6223,188.3,188.245,1.000001,1278,3005,674764,122487,59229922.25,56558,58790.5,0.000047,685791,0.181526,0.168402,0.166837,97681.4,97817.9,95339,1.863819,95340.9,0.974659,16743.3,16741.8,4.994804,3.907885,2.53253,0.438473,0.371512,1.20224e+06,779120,0.077606,0.065754,3.24718,0.033118,998979,0.005862,1.65721e+08,2.91006e+07,0.1756,4.63149e+06,2.63753e+07,2.67788e+07,6.13781e+07,1.0778e+07,1.68257e+08,6.23172e+07
81.62326,190.25,190.247,1.000001,1278,3005,670149.75,121372,59316275.5,56655,58866.875,0.000047,681052,0.181112,0.16799,0.166436,98361.1,98516.1,96035,1.863819,96036.9,0.974816,16823.5,16822,4.994804,3.900134,2.524779,0.441205,0.374243,1.19986e+06,776736,0.078089,0.066238,3.247703,0.032888,999140,0.005821,1.66931e+08,2.92399e+07,0.175162,4.65367e+06,2.65678e+07,2.69723e+07,6.18262e+07,1.08296e+07,1.69472e+08,6.27675e+07
82.6068,192.325,192.214,1.000001,1278,3005,665601,119909.75,59401562.5,56747.375,58943.125,0.000047,676316,0.180153,0.167035,0.165507,99049.9,99233.1,96749.8,1.863819,96751.6,0.974976,16851.5,16850,4.994804,3.892462,2.517107,0.443903,0.376941,1.1975e+06,774375,0.078567,0.066715,3.248236,0.032661,999303,0.005781,1.68173e+08,2.92886e+07,0.174157,4.66142e+06,2.67656e+07,2.71684e+07,6.22863e+07,1.08476e+07,1.70704e+08,6.32239e+07
83.62214,194.275,194.244,1.000001,1278,3005,661121,119006.25,59490496.25,56837,59022,0.000047,671747,0.180007,0.16689,0.165366,99723.7,99921.2,97435.6,1.863819,97437.5,0.975125,16955.5,16954,4.994804,3.884445,2.509089,0.446716,0.379754,1.19503e+06,771909,0.079065,0.067213,3.248733,0.032437,999456,0.005741,1.69365e+08,2.94694e+07,0.173999,4.69019e+06,2.69553e+07,2.73603e+07,6.27279e+07,1.09146e+07,1.7191e+08,6.36704e+07
84.61742,196.3375,196.235,1.000001,1278,3005,657039,117840.5,59577226,56935.875,59107.5,0.000047,667523,0.179351,0.166237,0.164731,100355,100575,98086.9,1.863819,98088.7,0.975264,17001.4,16999.9,4.994804,3.876608,2.501253,0.449459,0.382497,1.19262e+06,769498,0.07955,0.067699,3.249196,0.032233,999599,0.005705,1.70497e+08,2.95491e+07,0.173312,4.70289e+06,2.71355e+07,2.754e+07,6.31471e+07,1.09441e+07,1.73039e+08,6.40885e+07
85.6106,198.3,198.221,1.000001,1278,3005,653527.625,116687.875,59663635.625,57024.25,59181.375,0.000048,663863,0.178551,0.16544,0.163955,100908,101152,98661.6,1.863819,98663.4,0.975383,17018.5,17017.1,4.994804,3.868784,2.493429,0.452192,0.385231,1.19021e+06,767091,0.080034,0.068182,3.249592,0.032058,999721,0.005674,1.71496e+08,2.95789e+07,0.172476,4.70763e+06,2.72944e+07,2.76974e+07,6.35171e+07,1.09552e+07,1.74028e+08,6.44549e+07
86.6735,200.4,200.347,1.000001,1278,3005,649847.625,115672.875,59755555.625,57122.375,59269.125,0.000048,660062,0.178,0.164892,0.163421,101489,101753,99260.4,1.863819,99262.3,0.975504,17064.6,17063.1,4.994804,3.860442,2.485086,0.4551,0.388138,1.18765e+06,764524,0.080549,0.068697,3.249997,0.031874,999845,0.005641,1.72537e+08,2.9659e+07,0.171899,4.72037e+06,2.74601e+07,2.78629e+07,6.39027e+07,1.09848e+07,1.75068e+08,6.48399e+07
87.6735,202.45,202.347,1.000001,1278,3005,646207.25,114684.75,59844029.25,57215.625,59355.625,0.000048,656305,0.177474,0.164368,0.162911,102070,102354,99859.1,1.863819,99861,0.975625,17112.5,17111,4.994804,3.852394,2.477039,0.457898,0.390937,1.18517e+06,762048,0.081044,0.069192,3.2504,0.031692,999969,0.005609,1.73578e+08,2.97422e+07,0.171348,4.73362e+06,2.76257e+07,2.80283e+07,6.4288e+07,1.10156e+07,1.76107e+08,6.5225e+07
88.7264,204.4875,204.453,1.000001,1278,3005,642650.5,113632.5,59937887.25,57315.75,59438.875,0.000048,652619,0.176819,0.163716,0.162276,102646,102953,100455,1.863819,100457,0.975743,17145.9,17144.4,4.994804,3.843837,2.468481,0.460867,0.393905,1.18254e+06,759416,0.081569,0.069718,3.250791,0.031514,1.00009e+06,0.005578,1.74614e+08,2.98003e+07,0.170664,4.74287e+06,2.77907e+07,2.81925e+07,6.46719e+07,1.10372e+07,1.77139e+08,6.5607e+07
89.7139,206.5,206.428,1.000001,1278,3005,639743.375,112753.375,60027074.125,57405.75,59527.375,0.000048,649604,0.176248,0.163147,0.161723,103123,103448,100949,1.863819,100950,0.975836,17170,17168.5,4.994804,3.835686,2.460331,0.463688,0.396726,1.18003e+06,756908,0.082069,0.070217,3.251102,0.031369,1.00019e+06,0.005552,1.75472e+08,2.98422e+07,0.170069,4.74953e+06,2.79271e+07,2.83281e+07,6.49895e+07,1.10527e+07,1.77991e+08,6.59226e+07
90.731,208.4625,208.462,1.000001,1278,3005,637025.875,112087.875,60121007.125,57503.375,59607,0.000048,646812,0.175955,0.162856,0.161439,103568,103907,101405,1.863819,101407,0.975918,17216.6,17215.1,4.994804,3.827082,2.451726,0.466659,0.399698,1.17738e+06,754261,0.082595,0.070743,3.251377,0.031233,1.00027e+06,0.005528,1.76265e+08,2.99233e+07,0.169763,4.76243e+06,2.80534e+07,2.84548e+07,6.52833e+07,1.10827e+07,1.78787e+08,6.62173e+07
91.7606,210.6125,210.521,1.000001,1278,3005,634062.125,111017.625,60218128.875,57602.125,59700.625,0.000048,643708,0.17509,0.161994,0.160599,104067,104432,101927,1.863819,101929,0.976014,17213.3,17211.9,4.994804,3.818163,2.442808,0.469731,0.40277,1.17464e+06,751518,0.083138,0.071287,3.251696,0.031085,1.00037e+06,0.005502,1.77172e+08,2.99176e+07,0.168862,4.76152e+06,2.81977e+07,2.85969e+07,6.56191e+07,1.10806e+07,1.7968e+08,6.65481e+07
92.7608,212.5875,212.522,1.000001,1278,3005,631922.5,110598,60311884.5,57692.375,59792,0.000048,641528,0.175018,0.161923,0.16053,104421,104794,102286,1.863819,102288,0.976073,17266.5,17265,4.994804,3.809533,2.434178,0.472697,0.405735,1.17198e+06,748863,0.083663,0.071812,3.251891,0.030978,1.00043e+06,0.005483,1.77797e+08,3.00099e+07,0.168788,4.77622e+06,2.82972e+07,2.86974e+07,6.58506e+07,1.11148e+07,1.80311e+08,6.6782e+07
93.7522,214.6125,214.504,1.000001,1278,3005,628330.25,109673,60408951,57795.5,59881.375,0.000048,637830,0.174547,0.161454,0.160072,105026,105420,102909,1.863819,102911,0.97619,17321,17319.5,4.994804,3.800576,2.425221,0.475767,0.408805,1.16923e+06,746107,0.084207,0.072355,3.252281,0.030799,1.00055e+06,0.005451,1.7888e+08,3.01046e+07,0.168295,4.7913e+06,2.84696e+07,2.887e+07,6.62518e+07,1.11499e+07,1.81395e+08,6.71835e+07
94.7675,216.65,216.535,1.000001,1278,3005,625139,108875.75,60509977.5,57901.125,59981.5,0.000048,634549,0.174162,0.161071,0.159699,105569,105981,103468,1.863819,103469,0.97629,17373.4,17372,4.994804,3.79123,2.415875,0.478962,0.412001,1.16635e+06,743232,0.084772,0.072921,3.252614,0.03064,1.00065e+06,0.005423,1.7985e+08,3.01958e+07,0.167894,4.80581e+06,2.8624e+07,2.90246e+07,6.66111e+07,1.11836e+07,1.82367e+08,6.75434e+07
95.7643,218.6875,218.529,1.000001,1278,3005,622549.875,108441.625,60612833.875,58006.5,60082,0.000048,631924,0.174189,0.161098,0.159726,106008,106428,103912,1.863819,103914,0.976363,17451,17449.5,4.994804,3.781689,2.406334,0.482216,0.415254,1.16342e+06,740297,0.085348,0.073496,3.252857,0.030511,1.00073e+06,0.0054,1.80623e+08,3.03306e+07,0.167922,4.82726e+06,2.87469e+07,2.91494e+07,6.68972e+07,1.12335e+07,1.83151e+08,6.78339e+07
96.7812,220.675,220.562,1.000001,1278,3005,619701.125,107647.875,60718236.375,58114.625,60175.75,0.000048,628981,0.173709,0.16062,0.15926,106504,106943,104424,1.863819,104426,0.976449,17484.8,17483.3,4.994804,3.771886,2.396531,0.48555,0.418588,1.1604e+06,737281,0.085938,0.074086,3.253145,0.030368,1.00081e+06,0.005375,1.81512e+08,3.03893e+07,0.167423,4.83661e+06,2.88886e+07,2.92906e+07,6.72268e+07,1.12553e+07,1.84039e+08,6.81625e+07
97.7812,222.6,222.562,1.000001,1278,3005,617708.375,107363.625,60826184.375,58224.5,60276.125,0.000048,626969,0.17381,0.16072,0.159357,106846,107290,104768,1.863819,104770,0.976497,17553.5,17552,4.994804,3.761818,2.386463,0.488964,0.422003,1.1573e+06,734183,0.086542,0.074691,3.253306,0.030269,1.00086e+06,0.005357,1.82111e+08,3.05087e+07,0.167528,4.85561e+06,2.89838e+07,2.93877e+07,6.74484e+07,1.12995e+07,1.84649e+08,6.83884e+07
98.7806,224.725,224.561,1.000001,1278,3005,615817,106742,60936729,58333.5,60382.25,0.000048,625000,0.173334,0.160246,0.158895,107183,107642,105117,1.863819,105119,0.976546,17560.2,17558.7,4.994804,3.751479,2.376123,0.492461,0.425499,1.15412e+06,731002,0.087161,0.07531,3.253466,0.030174,1.00091e+06,0.005341,1.82718e+08,3.05204e+07,0.167036,4.85747e+06,2.90804e+07,2.94833e+07,6.76732e+07,1.13039e+07,1.85249e+08,6.86108e+07
99.7806,226.5875,226.561,1.000001,1278,3005,614106.75,106492.75,61051411.25,58449.875,60490.875,0.000048,623272,0.173411,0.160323,0.15897,107480,107944,105416,1.863819,105418,0.976581,17618.8,17617.3,4.994804,3.74072,2.365365,0.496088,0.429127,1.15081e+06,727693,0.087803,0.075952,3.253586,0.030089,1.00095e+06,0.005326,1.83237e+08,3.06222e+07,0.167118,4.87368e+06,2.91631e+07,2.95675e+07,6.78657e+07,1.13416e+07,1.85778e+08,6.88068e+07
100.773,228.6125,228.545,1.000001,1278,3005,612680.375,106065.625,61168126.125,58561.625,60604.375,0.000048,621794,0.173117,0.16003,0.158685,107735,108211,105679,1.863819,105681,0.976609,17630.8,17629.3,4.994804,3.729738,2.354383,0.49978,0.432819,1.14744e+06,724314,0.088457,0.076605,3.253676,0.030018,1.00098e+06,0.005313,1.83694e+08,3.06431e+07,0.166816,4.877e+06,2.92358e+07,2.96398e+07,6.8035e+07,1.13493e+07,1.86233e+08,6.89751e+07
101.806,230.675,230.611,1.000001,1278,3005,610807.5,105660,61294424.5,58690,60728.5,0.000048,619879,0.172984,0.159898,0.158555,108068,108553,106018,1.863819,106020,0.976649,17672.9,17671.4,4.994804,3.717816,2.342461,0.503775,0.436813,1.14377e+06,720646,0.089164,0.077312,3.253812,0.029925,1.00102e+06,0.005296,1.84283e+08,3.07163e+07,0.16668,4.88864e+06,2.93296e+07,2.97342e+07,6.8253e+07,1.13764e+07,1.86826e+08,6.91947e+07
102.805,232.8375,232.611,1.000001,1278,3005,609531.375,105477.625,61422572.625,58813,60849,0.000048,618590,0.173047,0.15996,0.158617,108293,108782,106243,1.863819,106245,0.976665,17717.8,17716.3,4.994804,3.705679,2.330323,0.507828,0.440867,1.14003e+06,716912,0.089881,0.07803,3.253863,0.029861,1.00103e+06,0.005285,1.84675e+08,3.07943e+07,0.166749,4.90106e+06,2.93919e+07,2.97977e+07,6.8398e+07,1.14053e+07,1.87225e+08,6.93424e+07
103.792,234.725,234.584,1.000001,1278,3005,607339.125,105308.875,61555318.875,58949.375,60981,0.000049,616401,0.173394,0.160306,0.158953,108678,109169,106626,1.863819,106628,0.976712,17820.3,17818.8,4.994804,3.693062,2.317707,0.512027,0.445066,1.13615e+06,713031,0.090624,0.078773,3.254022,0.029752,1.00108e+06,0.005266,1.8534e+08,3.09725e+07,0.167112,4.92943e+06,2.94978e+07,2.99069e+07,6.86446e+07,1.14713e+07,1.8791e+08,6.95965e+07
104.785,236.7375,236.57,1.000001,1278,3005,606920.75,105049,61694648.75,59082.625,61113.25,0.000049,615945,0.173085,0.159998,0.158654,108758,109256,106710,1.863819,106712,0.976694,17800.7,17799.2,4.994804,3.679772,2.304416,0.516434,0.449473,1.13206e+06,708942,0.091404,0.079553,3.253961,0.029731,1.00106e+06,0.005262,1.85486e+08,3.09384e+07,0.166796,4.924e+06,2.9521e+07,2.99288e+07,6.86985e+07,1.14587e+07,1.88049e+08,6.96476e+07
105.785,238.775,238.569,1.000001,1278,3005,605595.25,104949.5,61841475.25,59232,61256.125,0.000049,614622,0.1733,0.160212,0.158862,108992,109492,106941,1.863819,106943,0.976705,17863.6,17862.1,4.994804,3.665712,2.290357,0.521078,0.454117,1.12774e+06,704617,0.092226,0.080375,3.253997,0.029665,1.00108e+06,0.00525,1.85888e+08,3.10477e+07,0.167024,4.9414e+06,2.95849e+07,2.99948e+07,6.88473e+07,1.14992e+07,1.88463e+08,6.98011e+07
106.78,240.675,240.56,1.000001,1278,3005,606942.25,105150.5,61992758.25,59363,61404.625,0.000049,615983,0.173246,0.160159,0.15881,108751,109247,106692,1.863819,106693,0.976612,17816.9,17815.4,4.994804,3.651168,2.275813,0.525864,0.458902,1.12326e+06,700142,0.093073,0.081222,3.253688,0.029732,1.00098e+06,0.005262,1.85454e+08,3.09666e+07,0.166978,4.92849e+06,2.95159e+07,2.99245e+07,6.86866e+07,1.14691e+07,1.88021e+08,6.96376e+07
107.781,242.7,242.562,1.000001,1278,3005,607207.25,105584.25,62153226.5,59517.875,61562.875,0.000049,616319,0.173885,0.160795,0.15943,108692,109175,106615,1.863819,106617,0.976553,17875.7,17874.2,4.994804,3.635676,2.26032,0.530939,0.463978,1.1185e+06,695376,0.093972,0.08212,3.253491,0.029746,1.00092e+06,0.005265,1.85321e+08,3.10689e+07,0.167649,4.94476e+06,2.94947e+07,2.99063e+07,6.86372e+07,1.1507e+07,1.87907e+08,6.95951e+07
108.781,244.5875,244.562,1.000001,1278,3005,608360.75,106291.25,62320948.25,59682.75,61727.375,0.000049,617576,0.174717,0.161624,0.160238,108471,108934,106369,1.863819,106371,0.976455,17927.6,17926.1,4.994804,3.61941,2.244055,0.536244,0.469283,1.11349e+06,690372,0.094911,0.083059,3.253165,0.029804,1.00082e+06,0.005275,1.84893e+08,3.1159e+07,0.168525,4.9591e+06,2.94266e+07,2.98415e+07,6.84788e+07,1.15404e+07,1.875e+08,6.94444e+07
109.78,246.725,246.561,1.000001,1278,3005,609467.375,107122.125,62501130.875,59853.25,61906.875,0.000049,618810,0.175764,0.162665,0.161253,108255,108694,106124,1.863819,106125,0.976353,18002.8,18001.3,4.994804,3.601853,2.226498,0.541944,0.474982,1.10809e+06,684971,0.095919,0.084068,3.252826,0.029859,1.00072e+06,0.005285,1.84467e+08,3.12897e+07,0.169623,4.97991e+06,2.93587e+07,2.97781e+07,6.83209e+07,1.15888e+07,1.87101e+08,6.92968e+07
110.797,248.7125,248.594,1.000001,1278,3005,612295.25,108591.5,62699527.25,60033.5,62109.5,0.000049,621850,0.177352,0.164246,0.162793,107725,108125,105548,1.863819,105550,0.976173,18081.1,18079.5,4.994804,3.58242,2.207065,0.548219,0.481258,1.10211e+06,678992,0.09703,0.085178,3.252225,0.030001,1.00053e+06,0.00531,1.83467e+08,3.14258e+07,0.171289,5.00156e+06,2.91996e+07,2.96249e+07,6.79506e+07,1.16392e+07,1.86139e+08,6.89402e+07
111.798,250.7625,250.596,1.000001,1278,3005,613738.875,109907.125,62904531.125,60233,62313.625,0.000049,623502,0.179078,0.165965,0.164466,107440,107802,105219,1.863819,105221,0.976043,18215,18213.4,4.994804,3.562227,2.186871,0.554703,0.487742,1.0959e+06,672780,0.098178,0.086326,3.251793,0.030074,1.0004e+06,0.005323,1.82895e+08,3.16585e+07,0.173097,5.0386e+06,2.91086e+07,2.95414e+07,6.77388e+07,1.17254e+07,1.85614e+08,6.87461e+07
112.793,252.7,252.586,1.000001,1278,3005,616438.5,110810.25,63116853,60433.5,62518.125,0.000049,626319,0.179759,0.166643,0.165126,106957,107296,104707,1.863819,104709,0.975869,18202.2,18200.6,4.994804,3.54119,2.165835,0.561419,0.494458,1.08943e+06,666308,0.099366,0.087515,3.251213,0.030209,1.00022e+06,0.005347,1.82005e+08,3.16362e+07,0.173821,5.03506e+06,2.89669e+07,2.94013e+07,6.74091e+07,1.17171e+07,1.84734e+08,6.84199e+07
113.793,254.775,254.587,1.000001,1278,3005,619771.125,113066.125,63341248.125,60635.375,62744,0.00005,630000,0.182432,0.169305,0.167714,106332,106610,104014,1.863819,104016,0.975648,18372.8,18371.2,4.994804,3.518819,2.143463,0.568517,0.501556,1.08255e+06,659426,0.100622,0.088771,3.250476,0.030377,999993,0.005376,1.80799e+08,3.19328e+07,0.17662,5.08226e+06,2.87751e+07,2.92205e+07,6.69627e+07,1.1827e+07,1.83598e+08,6.79991e+07
114.792,256.7,256.584,1.000001,1278,3005,622226.625,114850.875,63570648.875,60849.5,62972.125,0.00005,632737,0.18458,0.171443,0.169793,105872,106101,103498,1.863819,103500,0.975463,18514.8,18513.3,4.994804,3.495799,2.120444,0.575773,0.508812,1.07547e+06,652344,0.101907,0.090055,3.249859,0.030501,999803,0.005398,1.79903e+08,3.21797e+07,0.178872,5.12155e+06,2.86324e+07,2.90868e+07,6.66307e+07,1.19184e+07,1.82758e+08,6.76882e+07
115.792,258.675,258.585,1.000001,1278,3005,626749.375,118104.875,63806902.125,61065.25,63207.375,0.00005,637780,0.18844,0.175285,0.173523,105035,105177,102566,1.863819,102568,0.975175,18762.4,18760.8,4.994804,3.471932,2.096577,0.583246,0.516285,1.06812e+06,645001,0.103229,0.091378,3.248901,0.030729,999508,0.005439,1.78283e+08,3.261e+07,0.182912,5.19003e+06,2.83746e+07,2.88453e+07,6.60306e+07,1.20778e+07,1.81241e+08,6.71261e+07
116.784,260.7,260.568,1.000001,1278,3005,631761,121214.75,64056620.75,61297.75,63462.25,0.00005,643285,0.191868,0.178697,0.176831,104136,104198,101579,1.863819,101581,0.974864,18946.8,18945.3,4.994804,3.446524,2.071169,0.591145,0.524183,1.06031e+06,637185,0.104627,0.092776,3.247865,0.030981,999189,0.005483,1.76567e+08,3.29306e+07,0.186505,5.24106e+06,2.81015e+07,2.8586e+07,6.53952e+07,1.21965e+07,1.79612e+08,6.65228e+07
117.784,262.625,262.568,1.000001,1278,3005,636348.5,123689.5,64313378.5,61533.875,63715.625,0.00005,648258,0.194374,0.181191,0.179246,103337,103338,100711,1.863819,100713,0.974574,19050.3,19048.8,4.994804,3.420202,2.044847,0.599266,0.532305,1.05221e+06,629087,0.106065,0.094213,3.246897,0.031211,998892,0.005524,1.75058e+08,3.31105e+07,0.18914,5.26969e+06,2.78613e+07,2.83553e+07,6.48363e+07,1.22631e+07,1.78162e+08,6.59858e+07
118.775,264.7,264.551,1.000001,1278,3005,641781.125,127889.875,64583104.625,61770.375,63987.375,0.00005,654400,0.199273,0.186067,0.183963,102367,102260,99623.1,1.863819,99624.9,0.974218,19355.9,19354.3,4.994804,3.39233,2.016975,0.607798,0.540836,1.04363e+06,620512,0.107575,0.095723,3.245711,0.031485,998527,0.005573,1.73167e+08,3.36416e+07,0.194272,5.35423e+06,2.75604e+07,2.80757e+07,6.41361e+07,1.24599e+07,1.76405e+08,6.53352e+07
119.772,266.6375,266.543,1.000001,1278,3005,647807.75,131380.5,64857810.75,62022.5,64269.875,0.00005,660996,0.202808,0.189584,0.18736,101346,101155,98509.2,1.863819,98511.1,0.973845,19505.6,19504,4.994804,3.363705,1.98835,0.616487,0.549525,1.03483e+06,611706,0.109113,0.097261,3.244468,0.031788,998144,0.005626,1.71231e+08,3.39018e+07,0.197988,5.39563e+06,2.72523e+07,2.77813e+07,6.3419e+07,1.25562e+07,1.74555e+08,6.46501e+07
120.788,268.7125,268.577,1.000001,1278,3005,655287.625,135590.375,65142851.875,62267.625,64559.5,0.000051,669169,0.206917,0.193673,0.191304,100108,99821,97165.4,1.863819,97167.3,0.973397,19659.6,19658.1,4.994804,3.333743,1.958387,0.625503,0.558541,1.02561e+06,602488,0.110708,0.098857,3.242977,0.032163,997686,0.005693,1.68896e+08,3.41695e+07,0.202311,5.43824e+06,2.68805e+07,2.74251e+07,6.25539e+07,1.26554e+07,1.72317e+08,6.38212e+07
121.788,270.6875,270.576,1.000001,1278,3005,663762.5,139877.5,65423801,62521,64843.875,0.000051,678341,0.210734,0.19747,0.194962,98754.2,98376.5,95711.2,1.863819,95713.1,0.972907,19750.8,19749.2,4.994804,3.303942,1.928587,0.634389,0.567428,1.01644e+06,593320,0.112281,0.10043,3.241345,0.032588,997183,0.005768,1.66368e+08,3.43279e+07,0.206337,5.46345e+06,2.64782e+07,2.7036e+07,6.16177e+07,1.2714e+07,1.69873e+08,6.29157e+07
122.8062,272.7125,272.612,1.000001,1278,3005,673933,144468.5,65719510.75,62775,65149.125,0.000051,689244,0.214366,0.201083,0.198437,97192.1,96726.5,94050.7,1.863819,94052.6,0.972337,19769.8,19768.2,4.994804,3.27228,1.896925,0.643743,0.576781,1.0067e+06,583579,0.113937,0.102085,3.239445,0.033098,996599,0.005858,1.63482e+08,3.4361e+07,0.210183,5.46872e+06,2.60189e+07,2.65874e+07,6.05488e+07,1.27263e+07,1.67054e+08,6.18717e+07
123.805,274.7375,274.61,1.000001,1278,3005,683716.5,149258,66013676.5,63032.625,65449,0.000051,699819,0.218304,0.205,0.202198,95723.4,95166.9,92480.6,1.863819,92482.4,0.971773,19825.2,19823.6,4.994804,3.240473,1.865118,0.653048,0.586086,996915,573794,0.115584,0.103732,3.237564,0.033589,996020,0.005945,1.60752e+08,3.44573e+07,0.21435,5.48405e+06,2.55845e+07,2.61657e+07,5.95379e+07,1.2762e+07,1.64404e+08,6.08903e+07
124.055,275.2,275.109,1.000001,1278,3005,686563.125,150708.875,66087635.875,63091.875,65527.75,0.000051,702910,0.219512,0.206201,0.203351,95302.5,94718.7,92029.7,1.863819,92031.5,0.971611,19846.2,19844.6,4.994804,3.232426,1.857071,0.655387,0.588426,994440,571319,0.115998,0.104146,3.237025,0.033732,995854,0.00597,1.59969e+08,3.44937e+07,0.215628,5.48984e+06,2.54598e+07,2.60449e+07,5.92477e+07,1.27755e+07,1.63645e+08,6.06094e+07