File: FirefighterJacket/data/DMA/Nomex 1 Temperature Scan.txt
Filename:	P:\+Courses\MatSci\Spring2016\Emily_Adam\DMA\Nomex 1 Temperature Scan.dm8d
Operator ID:	Adam
Sample ID:	Nomex #1
Comment: 	Temperature Scan at .010 mm
Serial Number:	3066274
Data Collected:	2/22/2016 6:21:24 PM
Validation
Validated:	No
By:
Date:
Calibration Information
Filename:	C:\Program Files (x86)\PerkinElmer\Pyris\Calibrations\2_16_16 Tension.dm8c
Date/Time:
Initial Conditions
Temperature:
Measuring System:	Tension - Rectangle
Clamp Mass	9.343 g
Length:	5.650 mm
Width:	5.910 mm
Thickness:	0.550 mm
End Condition:	Go To Load
Total Points in Run:	1288
Method Steps:
Pre-Run Actions
Start the Run
	Action occurs Immediately
Switch the Gas to Nitrogen at 20.0 ml/min
	Action occurs Immediately
1)	Heat from 27.00°C to 400.00°C at 2.00°C/min

1) DMA8000 Temperature Scan
	Time     	Sample     	Program     	Frequency     	Raw Dynamic	Raw Static	In-Phase     	Out-Of-Phase	Zero Displacement	Min Displacement	Max Displacement	Spring     	C*     	Measured     	Corrected     	Corrected     	Stiffness*	Total     	Stiffness     	Inertia     	Sample     	Ratio of     	Total     	Sample     	Total Applied	Static Force	Static     	Static     	Static     	Static Stress	Static     	Static Strain	Static     	Dynamic Force	Displacement	Dynamic     	Dynamic     	Storage     	Loss Modulus	Tan Delta     	Loss Viscosity	Storage     	Complex     	Shear Storage	Shear Loss	Complex     	Shear Complex
	          	Temperature	Temperature	          	Force     	Force     	Angle     	Angle     	               	               	               	Stiffness     	          	Tan Delta     	Total Tan Delta	Total Delta	          	Stiffness'	Less Spring	          	Stiffness'	Sample to Total	Stiffness''	Stiffness''	Static Force	          	Force Corrected	Displacement	Displacement Co	          	Stress Correcte	          	Strain Correcte	          	Amplitude     	Stress     	Strain     	Modulus     	          	          	               	Viscosity     	Viscosity     	Modulus     	Modulus     	Modulus     	Modulus
	0.000000	26.4	27	1.000001	313	2281	939957	228895	4.32506e+07	40538.6	43540.9	0.000044	967425	0.243516	0.230069	0.226134	16959	16569.5	14249.8	1.863819	14251.7	0.860018	3822.98	3821.61	1.220025	1.375355	0.000000	0.066961	0.000000	423121	0.000000	0.011852	0.000000	0.701738	0.046780	215886	0.008280	2.47722e+07	6.64269e+06	0.268151	1.05722e+06	3.94261e+06	4.0819e+06	9.17489e+06	2.46026e+06	2.56474e+07	9.49902e+06
	1.501054	26.4	30.0021	1.000001	332	2296	982647	224957	4.36764e+07	40882.4	43996.6	0.000044	1.00807e+06	0.228929	0.215567	0.212318	17263.2	16920	14604.1	1.863819	14606	0.863145	3657.92	3656.55	1.298232	1.422116	0.046760	0.053494	0.013467	437507	14385.6	0.009468	0.002384	0.747042	0.048893	229824	0.008654	2.53881e+07	6.35579e+06	0.250346	1.01155e+06	4.04063e+06	4.16533e+06	9.40298e+06	2.35399e+06	2.61715e+07	9.69316e+06
	2.935216	30.5625	32.8704	1.000001	332	2296	986298	223207	4.37032e+07	40903.8	44020.5	0.000044	1.01124e+06	0.226308	0.212960	0.209825	17209.1	16875.8	14560.2	1.863819	14562.1	0.862801	3604.22	3602.85	1.298232	1.420141	0.044786	0.052647	0.014315	436899	13778.1	0.009318	0.002534	0.746744	0.049073	229732	0.008685	2.53118e+07	6.26245e+06	0.247413	996700	4.02849e+06	4.14996e+06	9.37473e+06	2.31943e+06	2.6075e+07	9.65739e+06
	4.372499	35.15	35.745	1.000001	332	2296	984388	221019	4.37208e+07	40921.4	44034.2	0.000044	1.0089e+06	0.224524	0.211186	0.208128	17249	16921.3	14605.8	1.863819	14607.7	0.863178	3583.84	3582.47	1.298232	1.418841	0.043486	0.052089	0.014873	436499	13378.2	0.009219	0.002632	0.747070	0.048976	229832	0.008668	2.5391e+07	6.22703e+06	0.245245	991062	4.0411e+06	4.16086e+06	9.40408e+06	2.30631e+06	2.61434e+07	9.68276e+06
	5.813680	38.55	38.6274	1.000001	332	2296	979651	219023	4.37504e+07	40959.6	44057.9	0.000044	1.00384e+06	0.223573	0.210240	0.207222	17336	17010.1	14694.9	1.863819	14696.7	0.863906	3586.56	3585.19	1.298232	1.416661	0.041305	0.051152	0.015809	435829	12707.4	0.009054	0.002798	0.747701	0.048739	230026	0.008626	2.55458e+07	6.23175e+06	0.243945	991814	4.06573e+06	4.18496e+06	9.46139e+06	2.30806e+06	2.62949e+07	9.73884e+06
	7.242382	41.4	41.4848	1.000001	332	2296	974579	217575	4.37917e+07	41000.2	44093.5	0.000044	998571	0.223251	0.209920	0.206915	17427.4	17101.1	14786.2	1.863819	14788.1	0.864651	3600.32	3598.95	1.298232	1.413617	0.038261	0.049845	0.017116	434892	11770.9	0.008822	0.003029	0.748345	0.048486	230225	0.008582	2.57046e+07	6.25567e+06	0.243368	995619	4.09101e+06	4.21042e+06	9.52022e+06	2.31691e+06	2.64549e+07	9.7981e+06
	8.667443	44.375	44.3349	1.000001	332	2296	965558	214926	4.38526e+07	41066.2	44140.1	0.000044	989190	0.222593	0.209266	0.206289	17592.7	17266	14951.6	1.863819	14953.5	0.865972	3623.81	3622.44	1.298232	1.409134	0.033779	0.047919	0.019042	433513	10392	0.008481	0.003370	0.749488	0.048036	230576	0.008502	2.59921e+07	6.2965e+06	0.242247	1.00212e+06	4.13677e+06	4.25642e+06	9.62671e+06	2.33204e+06	2.67439e+07	9.90514e+06
	10.1666	47.35	47.3332	1.000001	344	2305	962144	214774	4.40455e+07	41250	44316.8	0.000044	985824	0.223224	0.209893	0.206890	18290.8	17950.8	15637.9	1.863819	15639.8	0.871168	3779.27	3777.9	1.345156	1.441878	0.066523	0.041819	0.025142	443587	20465.5	0.007402	0.004450	0.781238	0.047861	240344	0.008471	2.7185e+07	6.56673e+06	0.241557	1.04513e+06	4.32663e+06	4.45106e+06	1.00685e+07	2.43212e+06	2.79669e+07	1.03581e+07
	11.6468	50.225	50.2936	1.000001	351	2309	961387	215248	4.42497e+07	41456.6	44517.8	0.000044	985188	0.223893	0.210558	0.207527	18675	18326.5	16015.1	1.863819	16017	0.873889	3870.85	3869.48	1.366011	1.447738	0.072383	0.035358	0.031603	445389	22268.2	0.006258	0.005593	0.799625	0.047821	246001	0.008464	2.78406e+07	6.72591e+06	0.241586	1.07046e+06	4.43097e+06	4.55844e+06	1.03113e+07	2.49108e+06	2.86415e+07	1.0608e+07
	13.1839	53.45	53.3679	1.000001	373	2326	962905	217613	4.46731e+07	41846	44933.5	0.000044	987189	0.225997	0.212650	0.209529	19805.3	19430.8	17122.1	1.863819	17123.9	0.881195	4145.65	4144.28	1.454645	1.505362	0.130007	0.021968	0.044994	463117	39995.9	0.003888	0.007963	0.856848	0.047889	263605	0.008476	2.97647e+07	7.20357e+06	0.242017	1.14648e+06	4.73719e+06	4.87395e+06	1.1024e+07	2.66799e+06	3.0624e+07	1.13422e+07
	14.6885	56.4375	56.3771	1.000001	388	2338	961800	217860	4.50741e+07	42229.1	45320.8	0.000044	986165	0.226513	0.213164	0.210020	20623.2	20233.5	17927	1.863819	17928.8	0.886012	4327.94	4326.58	1.517211	1.538620	0.163265	0.009282	0.057679	473349	50227.7	0.001643	0.010209	0.896178	0.047828	275705	0.008465	3.11638e+07	7.52043e+06	0.241320	1.19691e+06	4.95986e+06	5.10224e+06	1.15421e+07	2.78535e+06	3.20583e+07	1.18735e+07
	16.1968	59.325	59.3936	1.000001	405	2350	965592	219062	4.54708e+07	42594.8	45718.5	0.000044	990129	0.226869	0.213518	0.210359	21440.6	21036.6	18731.7	1.863819	18733.5	0.890443	4507.8	4506.44	1.579776	1.572255	0.196900	0.003263	0.063698	483696	60575.2	0.000578	0.011274	0.940121	0.048010	289224	0.008497	3.25625e+07	7.83306e+06	0.240555	1.24667e+06	5.18248e+06	5.33032e+06	1.20602e+07	2.90113e+06	3.34914e+07	1.24042e+07
	17.7045	62.5125	62.4091	1.000001	421	2362	963058	218335	4.58504e+07	42960	46078.8	0.000044	987497	0.226710	0.213360	0.210208	22347	21929.7	19626	1.863819	19627.8	0.894959	4696.42	4695.06	1.642342	1.607162	0.231807	0.015271	0.051691	494435	71314.2	0.002703	0.009149	0.982218	0.047877	302175	0.008474	3.4117e+07	8.16093e+06	0.239204	1.29885e+06	5.42989e+06	5.58307e+06	1.26359e+07	3.02256e+06	3.50795e+07	1.29924e+07
	19.1754	65.4125	65.3507	1.000001	429	2368	962607	218488	4.61752e+07	43269	46396.8	0.000044	987091	0.226976	0.213624	0.210461	22781	22355.9	20052.9	1.863819	20054.7	0.896993	4793.97	4792.6	1.673624	1.614796	0.239441	0.025544	0.041417	496784	73662.8	0.004521	0.007331	1.003158	0.047852	308616	0.008469	3.4859e+07	8.33048e+06	0.238976	1.32584e+06	5.54798e+06	5.7042e+06	1.29107e+07	3.08536e+06	3.58406e+07	1.32743e+07
	20.693	68.375	68.386	1.000001	446	2381	962746	219000	4.65643e+07	43628.4	46773.2	0.000044	987340	0.227474	0.214119	0.210934	23677.8	23236.7	20934.2	1.863819	20936.1	0.900918	4995.16	4993.8	1.741403	1.654248	0.278893	0.037852	0.029109	508921	85800	0.006699	0.005152	1.047474	0.047852	322250	0.008469	3.63909e+07	8.68019e+06	0.238526	1.38149e+06	5.79179e+06	5.95427e+06	1.34781e+07	3.21488e+06	3.74118e+07	1.38562e+07
	22.1298	71.2375	71.2596	1.000001	455	2387	963629	218100	4.68471e+07	43900.6	47052.2	0.000044	988002	0.226331	0.212983	0.209848	24139.4	23697	21394.5	1.863819	21396.4	0.902847	5067.46	5066.1	1.772686	1.664941	0.289586	0.046796	0.020165	512211	89089.7	0.008283	0.003569	1.070899	0.047892	329457	0.008476	3.71911e+07	8.80586e+06	0.236773	1.40149e+06	5.91914e+06	6.0828e+06	1.37745e+07	3.26143e+06	3.82194e+07	1.41553e+07
	23.708	74.4125	74.416	1.000001	496	2419	960104	220550	4.73958e+07	44438.6	47580.4	0.000044	985110	0.229714	0.216347	0.213063	26391.9	25898.9	23596.1	1.863819	23598	0.911091	5627.95	5626.59	1.939527	1.791793	0.416437	0.064154	0.002808	551236	128115	0.011355	0.000497	1.178057	0.047702	362423	0.008443	4.10179e+07	9.7801e+06	0.238435	1.55655e+06	6.52819e+06	6.71119e+06	1.51918e+07	3.62226e+06	4.21677e+07	1.56177e+07
	25.075	77.125	77.1501	1.000001	506	2426	967356	219839	4.77237e+07	44737.8	47908.6	0.000044	992022	0.227258	0.213905	0.210729	26736.4	26251.7	23948.3	1.863819	23950.1	0.912262	5640.53	5639.16	1.976024	1.804362	0.429007	0.074524	0.007562	555103	131982	0.013190	0.001338	1.203352	0.048058	370205	0.008506	4.163e+07	9.80196e+06	0.235454	1.56003e+06	6.62562e+06	6.8068e+06	1.54185e+07	3.63035e+06	4.27684e+07	1.58401e+07
	26.312	79.7	79.6241	1.000001	506	2426	965220	217934	4.78949e+07	44898.6	48075.1	0.000044	989517	0.225787	0.212442	0.209330	26804	26326.4	24022.5	1.863819	24024.4	0.912494	5617.95	5616.59	1.976024	1.791849	0.416494	0.079941	0.012979	551253	128132	0.014149	0.002297	1.203659	0.047950	370300	0.008487	4.1759e+07	9.76272e+06	0.233787	1.55378e+06	6.64615e+06	6.82536e+06	1.54663e+07	3.61582e+06	4.2885e+07	1.58833e+07
	27.6875	82.3	82.3751	1.000001	551	2459	963957	220479	4.83723e+07	45371	48535.9	0.000044	988850	0.228723	0.215361	0.212122	29207.5	28680.2	26374.7	1.863819	26376.6	0.919619	6206.86	6205.49	2.148078	1.928961	0.553606	0.095041	0.028079	593435	170314	0.016821	0.004970	1.320937	0.047871	406380	0.008473	4.58476e+07	1.07864e+07	0.235265	1.7167e+06	7.29686e+06	7.49608e+06	1.69806e+07	3.99494e+06	4.70993e+07	1.74442e+07
	28.9246	84.8	84.8492	1.000001	551	2459	966464	218755	4.85874e+07	45563.2	48745.5	0.000044	990912	0.226346	0.212997	0.209861	29146.7	28634.3	26327.9	1.863819	26329.7	0.919458	6128.83	6127.46	2.148078	1.913183	0.537828	0.101844	0.034882	588581	165460	0.018025	0.006174	1.320706	0.047994	406309	0.008495	4.57662e+07	1.06507e+07	0.232720	1.69511e+06	7.28391e+06	7.47856e+06	1.69504e+07	3.94471e+06	4.69892e+07	1.74034e+07
	30.1698	87.4	87.3397	1.000001	551	2459	965043	217216	4.87399e+07	45704.1	48891	0.000044	989187	0.225084	0.211743	0.208661	29197.5	28691.9	26384.7	1.863819	26386.6	0.919594	6105.02	6103.66	2.148078	1.901979	0.526624	0.106668	0.039707	585134	162013	0.018879	0.007028	1.320902	0.047922	406369	0.008482	4.5865e+07	1.06093e+07	0.231317	1.68853e+06	7.29964e+06	7.49239e+06	1.6987e+07	3.92938e+06	4.70761e+07	1.74356e+07
	31.4073	89.8	89.8146	1.000001	551	2459	963404	216057	4.88692e+07	45818.2	49010.6	0.000044	987334	0.224264	0.210928	0.207880	29252.3	28750.8	26443	1.863819	26444.8	0.919736	6094.06	6092.69	2.148078	1.892466	0.517111	0.110759	0.043798	582208	159087	0.019603	0.007752	1.321105	0.047840	406431	0.008467	4.59663e+07	1.05903e+07	0.230392	1.68549e+06	7.31575e+06	7.5074e+06	1.70245e+07	3.92232e+06	4.71704e+07	1.74705e+07
	33.0873	93.1625	93.1746	1.000001	732	2596	968954	221964	5.03322e+07	47274.1	50468.5	0.000044	994053	0.229076	0.215713	0.212457	38598.9	37953.7	35635.5	1.863819	35637.3	0.938923	8240.17	8238.79	2.862367	2.498331	1.122976	0.157033	0.090071	768599	345478	0.027793	0.015942	1.791695	0.048047	551206	0.008504	6.19446e+07	1.43206e+07	0.231184	2.2792e+06	9.85878e+06	1.01188e+07	2.29424e+07	5.30393e+06	6.35784e+07	2.35476e+07
	34.4388	95.875	95.8777	1.000001	732	2596	974182	218292	5.06507e+07	47566.8	50775.2	0.000044	998339	0.224077	0.210742	0.207702	38433.1	37828.8	35507.6	1.863819	35509.5	0.938643	8023.51	8022.13	2.862367	2.474481	1.099126	0.167108	0.100147	761262	338141	0.029577	0.017725	1.791161	0.048304	551042	0.008549	6.17224e+07	1.3944e+07	0.225915	2.21926e+06	9.82342e+06	1.0071e+07	2.28601e+07	5.16445e+06	6.32779e+07	2.34363e+07
	35.8715	98.8125	98.7429	1.000001	732	2596	969538	214396	5.08705e+07	47782.9	50981.2	0.000044	992959	0.221132	0.207812	0.204896	38641.4	38057.7	35734.4	1.863819	35736.3	0.938955	7960.12	7958.74	2.862367	2.457966	1.082610	0.174060	0.107098	756181	333060	0.030807	0.018955	1.791756	0.048070	551225	0.008508	6.21166e+07	1.38338e+07	0.222708	2.20172e+06	9.88615e+06	1.01284e+07	2.30061e+07	5.12364e+06	6.36384e+07	2.35698e+07
	37.3096	101.612	101.619	1.000001	732	2596	963524	211226	5.10485e+07	47959.2	51143.8	0.000044	986405	0.219222	0.205913	0.203075	38898.1	38326.9	36001.7	1.863819	36003.5	0.939335	7943.47	7942.09	2.862367	2.444555	1.069200	0.179689	0.112727	752055	328934	0.031803	0.019952	1.792482	0.047769	551448	0.008455	6.25811e+07	1.38049e+07	0.220592	2.19711e+06	9.96009e+06	1.01995e+07	2.31782e+07	5.11292e+06	6.40857e+07	2.37354e+07
	39.109	105.2	105.218	1.000001	947	2756	966950	213295	5.24767e+07	49384.9	52563.4	0.000045	990195	0.220585	0.207269	0.204375	50130.5	49466.1	47123.5	1.863819	47125.3	0.952643	10339.1	10337.7	3.696572	3.169791	1.794435	0.224866	0.157905	975170	552049	0.039799	0.027948	2.351815	0.047853	723524	0.008470	8.1913e+07	1.7969e+07	0.219367	2.85986e+06	1.30368e+07	1.33468e+07	3.03381e+07	6.65519e+06	8.38607e+07	3.10595e+07
	40.543	108.175	108.086	1.000001	947	2756	969180	209876	5.28456e+07	49725.6	52918.5	0.000045	991644	0.216551	0.203256	0.200524	50057.3	49433.3	47085.5	1.863819	47087.3	0.952506	10132	10130.7	3.696572	3.141215	1.765860	0.236535	0.169573	966379	543258	0.041865	0.030013	2.351476	0.047961	723420	0.008489	8.18469e+07	1.7609e+07	0.215146	2.80256e+06	1.30263e+07	1.33244e+07	3.03137e+07	6.52187e+06	8.37197e+07	3.10073e+07
	42.2774	111.537	111.555	1.000001	1166	2921	961430	206976	5.40623e+07	50965.6	54116.5	0.000045	983457	0.215280	0.201992	0.199310	62146.4	61502.1	59134.9	1.863819	59136.8	0.961512	12552.8	12551.4	4.556846	3.905830	2.530474	0.275019	0.208057	1.20161e+06	778488	0.048676	0.036824	2.922645	0.047485	899137	0.008404	1.02791e+08	2.18167e+07	0.212243	3.47223e+06	1.63597e+07	1.67241e+07	3.80708e+07	8.08025e+06	1.05081e+08	3.89189e+07
	43.7521	114.513	114.504	1.000001	1278	3005	961826	199584	5.50847e+07	51970.6	55118.2	0.000046	982315	0.207505	0.194258	0.191868	68195.1	67654.3	65268.7	1.863819	65270.5	0.964739	13293	13291.6	4.994804	4.261562	2.886207	0.307357	0.240395	1.31105e+06	887927	0.054399	0.042548	3.214131	0.047452	988811	0.008399	1.13453e+08	2.31034e+07	0.203639	3.67701e+06	1.80566e+07	1.84272e+07	4.20196e+07	8.55681e+06	1.15781e+08	4.2882e+07
	44.6611	116.4	116.322	1.000001	1278	3005	953640	194844	5.53588e+07	52254.5	55367.8	0.000046	973341	0.204317	0.191085	0.188809	68823.8	68326.4	65935.4	1.863819	65937.3	0.965008	13207.1	13205.7	4.994804	4.239203	2.863848	0.316029	0.249068	1.30417e+06	881048	0.055934	0.044083	3.215028	0.047041	989087	0.008326	1.14612e+08	2.29541e+07	0.200277	3.65325e+06	1.8241e+07	1.86033e+07	4.24488e+07	8.50152e+06	1.16888e+08	4.32918e+07
	45.5929	118.15	118.186	1.000001	1278	3005	944565	190902	5.55759e+07	52481.5	55567.4	0.000046	963663	0.202105	0.188885	0.186686	69515	69048.8	66653.6	1.863819	66655.5	0.965312	13194.6	13193.1	4.994804	4.221403	2.846048	0.322896	0.255934	1.29869e+06	875572	0.057150	0.045298	3.216042	0.046587	989399	0.008246	1.1586e+08	2.29322e+07	0.197930	3.64977e+06	1.84397e+07	1.87974e+07	4.29112e+07	8.49342e+06	1.18108e+08	4.37436e+07
	46.5055	120.088	120.011	1.000001	1278	3005	936222	187389	5.57553e+07	52672.9	55732.5	0.000046	954792	0.200154	0.186944	0.184810	70160.9	69722.8	67324	1.863819	67325.9	0.965596	13187.8	13186.4	4.994804	4.206628	2.831273	0.328571	0.261609	1.29415e+06	871027	0.058154	0.046303	3.216987	0.046170	989690	0.008172	1.17025e+08	2.29205e+07	0.195859	3.6479e+06	1.86252e+07	1.8979e+07	4.33428e+07	8.48906e+06	1.19249e+08	4.41663e+07
	47.4233	121.862	121.847	1.000001	1278	3005	927310	184168	5.59152e+07	52839.1	55876.4	0.000046	945421	0.198604	0.185401	0.183319	70856.3	70441.8	68039.7	1.863819	68041.6	0.965901	13215.3	13213.9	4.994804	4.193416	2.818060	0.333626	0.266665	1.29008e+06	866962	0.059049	0.047197	3.218003	0.045724	990002	0.008093	1.18269e+08	2.29683e+07	0.194203	3.65552e+06	1.88232e+07	1.91748e+07	4.38035e+07	8.50679e+06	1.20479e+08	4.46219e+07
	48.3396	123.737	123.679	1.000001	1278	3005	918450	181066	5.60607e+07	53003.8	56008.4	0.000046	936128	0.197143	0.183946	0.181913	71559.7	71168	68763	1.863819	68764.8	0.966207	13248.4	13246.9	4.994804	4.181346	2.805991	0.338228	0.271267	1.28637e+06	863249	0.059863	0.048012	3.219022	0.045281	990316	0.008014	1.19527e+08	2.30257e+07	0.192641	3.66466e+06	1.90232e+07	1.9373e+07	4.42691e+07	8.52805e+06	1.21724e+08	4.50831e+07
	49.2691	125.6	125.538	1.000001	1278	3005	910236	178268	5.61989e+07	53150	56125.2	0.000046	927528	0.195848	0.182658	0.180666	72223.2	71852.4	69444.4	1.863819	69446.3	0.966489	13283.5	13282.1	4.994804	4.169838	2.794483	0.342602	0.275641	1.28283e+06	859709	0.060638	0.048786	3.219960	0.044870	990605	0.007942	1.20711e+08	2.30868e+07	0.191257	3.67438e+06	1.92118e+07	1.956e+07	4.47078e+07	8.55069e+06	1.22899e+08	4.55182e+07
	50.2022	127.412	127.404	1.000001	1278	3005	902025	176002	5.63278e+07	53288.2	56248.4	0.000046	919035	0.195118	0.181932	0.179964	72890.6	72533.6	70122.9	1.863819	70124.8	0.966766	13357.6	13356.2	4.994804	4.159082	2.783726	0.346678	0.279716	1.27952e+06	856399	0.061359	0.049507	3.220884	0.044460	990889	0.007869	1.2189e+08	2.32156e+07	0.190463	3.69488e+06	1.93995e+07	1.97482e+07	4.51446e+07	8.59839e+06	1.24082e+08	4.59562e+07
	51.1307	129.338	129.261	1.000001	1278	3005	893545	173400	5.6448e+07	53423.4	56348	0.000046	910214	0.194059	0.180878	0.178943	73597	73258.7	70845.4	1.863819	70847.3	0.967060	13414.5	13413.1	4.994804	4.149016	2.773661	0.350480	0.283519	1.27642e+06	853303	0.062032	0.050180	3.221863	0.044036	991190	0.007794	1.23146e+08	2.33146e+07	0.189324	3.71063e+06	1.95993e+07	1.99475e+07	4.56098e+07	8.63503e+06	1.25334e+08	4.642e+07
	52.0438	131.113	131.088	1.000001	1278	3005	885867	171390	5.65614e+07	53546.2	56454.4	0.000046	902294	0.193471	0.180293	0.178376	74243	73917	71501.4	1.863819	71503.2	0.967320	13492.8	13491.3	4.994804	4.139502	2.764147	0.354065	0.287104	1.2735e+06	850376	0.062666	0.050815	3.222731	0.043653	991457	0.007726	1.24286e+08	2.34505e+07	0.188681	3.73227e+06	1.97808e+07	2.01298e+07	4.6032e+07	8.68538e+06	1.26479e+08	4.68443e+07
	52.9944	133.05	132.989	1.000001	1278	3005	877902	168975	5.66748e+07	53673.6	56550.8	0.000046	894016	0.192476	0.179303	0.177417	74930.5	74622.9	72204.8	1.863819	72206.7	0.967596	13548.3	13546.9	4.994804	4.129958	2.754603	0.357652	0.290691	1.27056e+06	847440	0.063301	0.051450	3.223651	0.043255	991740	0.007656	1.25509e+08	2.35471e+07	0.187613	3.74764e+06	1.99754e+07	2.03239e+07	4.64849e+07	8.72116e+06	1.27699e+08	4.72959e+07
	53.907	134.9	134.814	1.000001	1278	3005	869806	166890	5.67781e+07	53785.9	56638.2	0.000046	885672	0.191870	0.178699	0.176832	75636.4	75342.4	72922	1.863819	72923.9	0.967876	13634.5	13633.1	4.994804	4.121242	2.745887	0.360919	0.293958	1.26788e+06	844758	0.063880	0.052028	3.224582	0.042851	992026	0.007584	1.26756e+08	2.36969e+07	0.186949	3.77148e+06	2.01738e+07	2.05233e+07	4.69466e+07	8.77664e+06	1.28952e+08	4.776e+07
	54.8354	136.625	136.671	1.000001	1278	3005	861914	164740	5.68791e+07	53905	56729.5	0.000046	877516	0.191133	0.177966	0.176122	76339.4	76061.1	73638.5	1.863819	73640.3	0.968150	13709.7	13708.3	4.994804	4.112698	2.737342	0.364115	0.297153	1.26525e+06	842130	0.064445	0.052594	3.225495	0.042457	992307	0.007514	1.28001e+08	2.38276e+07	0.186152	3.79228e+06	2.0372e+07	2.0722e+07	4.74079e+07	8.82504e+06	1.302e+08	4.82223e+07
	55.7512	138.6	138.502	1.000001	1278	3005	854074	162668	5.69804e+07	54016.5	56813	0.000046	869427	0.190461	0.177297	0.175473	77049.7	76786.6	74361.7	1.863819	74363.6	0.968422	13790.1	13788.6	4.994804	4.104108	2.728753	0.367319	0.300358	1.26261e+06	839487	0.065012	0.053161	3.226400	0.042065	992586	0.007445	1.29258e+08	2.39673e+07	0.185422	3.81451e+06	2.05721e+07	2.09227e+07	4.78735e+07	8.87678e+06	1.31462e+08	4.86895e+07
	56.6846	140.35	140.369	1.000001	1278	3005	847061	160885	5.7077e+07	54123.4	56900.8	0.000046	862204	0.189933	0.176772	0.174964	77695.1	77444.9	75017.9	1.863819	75019.8	0.968662	13868.6	13867.1	4.994804	4.095897	2.720542	0.370375	0.303414	1.26008e+06	836961	0.065553	0.053702	3.227202	0.041715	992832	0.007383	1.30399e+08	2.41038e+07	0.184846	3.83623e+06	2.07536e+07	2.11052e+07	4.82959e+07	8.92732e+06	1.32608e+08	4.9114e+07
	57.6063	142.3	142.213	1.000001	1278	3005	838666	158936	5.71708e+07	54232	56981.2	0.000046	853593	0.189510	0.176351	0.174556	78478.9	78241.7	75812.6	1.863819	75814.4	0.968954	13979.7	13978.3	4.994804	4.087906	2.712550	0.373343	0.306382	1.25762e+06	834502	0.066078	0.054227	3.228175	0.041296	993132	0.007309	1.3178e+08	2.42969e+07	0.184375	3.86698e+06	2.09734e+07	2.1327e+07	4.88075e+07	8.99887e+06	1.34001e+08	4.96301e+07
	58.5157	144.1	144.031	1.000001	1278	3005	831175	157200	5.72615e+07	54335.5	57063.1	0.000046	845910	0.189130	0.175972	0.174189	79191.7	78966.5	76535.3	1.863819	76537.2	0.969213	14080.6	14079.2	4.994804	4.080165	2.704810	0.376212	0.309250	1.25524e+06	832121	0.066586	0.054735	3.229038	0.040923	993397	0.007243	1.33036e+08	2.44723e+07	0.183952	3.89489e+06	2.11734e+07	2.15287e+07	4.92728e+07	9.06383e+06	1.35269e+08	5.00995e+07
	59.4473	145.875	145.895	1.000001	1278	3005	823678	155612	5.73511e+07	54431.6	57138	0.000046	838248	0.188923	0.175766	0.173989	79915.5	79700.3	77267.1	1.863819	77268.9	0.969471	14196.5	14195.1	4.994804	4.072501	2.697146	0.379046	0.312084	1.25288e+06	829763	0.067088	0.055236	3.229897	0.040549	993661	0.007177	1.34308e+08	2.46738e+07	0.183710	3.92695e+06	2.13758e+07	2.17335e+07	4.97439e+07	9.13843e+06	1.36556e+08	5.05763e+07
	60.3779	147.812	147.756	1.000001	1278	3005	815742	153611	5.74403e+07	54539.1	57213.4	0.000046	830079	0.188309	0.175155	0.173396	80702	80503.3	78068.1	1.863819	78069.9	0.969750	14291.5	14290.1	4.994804	4.064858	2.689503	0.381866	0.314904	1.25053e+06	827412	0.067587	0.055735	3.230827	0.040152	993948	0.007107	1.35701e+08	2.4839e+07	0.183042	3.95324e+06	2.15974e+07	2.19562e+07	5.02595e+07	9.19962e+06	1.37955e+08	5.10945e+07
	61.2889	149.463	149.578	1.000001	1278	3005	808001	151824	5.75257e+07	54637.1	57288.1	0.000046	822141	0.187901	0.174748	0.173001	81481.2	81296.4	78859.2	1.863819	78861.1	0.970021	14400.7	14399.3	4.994804	4.057523	2.682167	0.384567	0.317605	1.24828e+06	825155	0.068065	0.056213	3.231729	0.039766	994225	0.007038	1.37076e+08	2.50288e+07	0.182591	3.98345e+06	2.18163e+07	2.2177e+07	5.07688e+07	9.26991e+06	1.39342e+08	5.16082e+07
	62.2192	151.425	151.438	1.000001	1278	3005	800002	150089	5.76118e+07	54736.2	57360.8	0.000047	813960	0.187611	0.174460	0.172722	82300.2	82128.4	79689.1	1.863819	79691	0.970300	14526.1	14524.6	4.994804	4.050108	2.674753	0.387291	0.320330	1.246e+06	822874	0.068547	0.056696	3.232660	0.039367	994511	0.006968	1.38518e+08	2.52466e+07	0.182262	4.01812e+06	2.20459e+07	2.24091e+07	5.13031e+07	9.3506e+06	1.408e+08	5.21483e+07
	63.1362	153.363	153.272	1.000001	1278	3005	792695	148624	5.76945e+07	54827.9	57434.2	0.000047	806508	0.187492	0.174342	0.172607	83060.6	82898.8	80457.7	1.863819	80459.5	0.970553	14654.3	14652.9	4.994804	4.042973	2.667618	0.389908	0.322946	1.2438e+06	820679	0.069010	0.057159	3.233502	0.039003	994771	0.006903	1.39854e+08	2.54695e+07	0.182115	4.0536e+06	2.22585e+07	2.26246e+07	5.17979e+07	9.43315e+06	1.42155e+08	5.26498e+07
	64.0857	155.188	155.171	1.000001	1278	3005	785117	146771	5.7781e+07	54930	57512.9	0.000047	798718	0.186941	0.173793	0.172075	83870.7	83726.1	81282.9	1.863819	81284.8	0.970820	14756	14754.5	4.994804	4.035495	2.660140	0.392644	0.325683	1.2415e+06	818379	0.069495	0.057643	3.234390	0.038624	995044	0.006836	1.41289e+08	2.56462e+07	0.181516	4.08172e+06	2.24868e+07	2.28542e+07	5.23292e+07	9.4986e+06	1.43597e+08	5.31842e+07
	64.9973	157.062	156.995	1.000001	1278	3005	777480	145188	5.78634e+07	55025.4	57582.9	0.000047	790920	0.186741	0.173594	0.171881	84697.6	84565.6	82120.4	1.863819	82122.3	0.971086	14888.9	14887.5	4.994804	4.028363	2.653008	0.395249	0.328287	1.23931e+06	816185	0.069956	0.058104	3.235279	0.038243	995317	0.006769	1.42744e+08	2.58773e+07	0.181284	4.11849e+06	2.27185e+07	2.30888e+07	5.28683e+07	9.58418e+06	1.45071e+08	5.373e+07
	65.9104	158.838	158.821	1.000001	1278	3005	769963	143483	5.79445e+07	55121.2	57649.8	0.000047	783218	0.186350	0.173205	0.171504	85530.5	85414.3	82967.2	1.863819	82969.1	0.971351	15006.7	15005.2	4.994804	4.021325	2.645970	0.397814	0.330853	1.23714e+06	814019	0.070410	0.058558	3.236161	0.037868	995589	0.006702	1.44216e+08	2.6082e+07	0.180853	4.15108e+06	2.29527e+07	2.33251e+07	5.34135e+07	9.66e+06	1.46556e+08	5.42799e+07
	66.8428	160.812	160.686	1.000001	1278	3005	762705	141949	5.80264e+07	55211.6	57718.9	0.000047	775802	0.186113	0.172969	0.171274	86348.1	86245.5	83796.5	1.863819	83798.3	0.971605	15134.1	15132.7	4.994804	4.014201	2.638846	0.400406	0.333444	1.23495e+06	811828	0.070868	0.059017	3.237005	0.037506	995848	0.006638	1.45658e+08	2.63035e+07	0.180584	4.18633e+06	2.31821e+07	2.35571e+07	5.39473e+07	9.74204e+06	1.48014e+08	5.48199e+07
	67.7598	162.675	162.52	1.000001	1278	3005	755190	140211	5.81065e+07	55307.8	57794.2	0.000047	768095	0.185663	0.172521	0.170840	87214.5	87129.6	84678.6	1.863819	84680.5	0.971871	15251.9	15250.4	4.994804	4.007224	2.631868	0.402939	0.335978	1.2328e+06	809681	0.071317	0.059465	3.237891	0.037131	996121	0.006572	1.47191e+08	2.65082e+07	0.180094	4.21891e+06	2.34262e+07	2.3803e+07	5.45152e+07	9.81786e+06	1.49559e+08	5.53922e+07
	68.6934	164.412	164.387	1.000001	1278	3005	748173	138781	5.81883e+07	55403.4	57863.2	0.000047	760936	0.185493	0.172352	0.170675	88035.1	87963.3	85510.4	1.863819	85512.3	0.972115	15384.9	15383.4	4.994804	4.000085	2.624730	0.405526	0.338564	1.23061e+06	807485	0.071774	0.059923	3.238705	0.036781	996371	0.006510	1.48637e+08	2.67394e+07	0.179897	4.2557e+06	2.36563e+07	2.4036e+07	5.50507e+07	9.90347e+06	1.51023e+08	5.59344e+07
	69.6235	166.312	166.247	1.000001	1278	3005	742330	137617	5.82695e+07	55490.1	57934.8	0.000047	754978	0.185385	0.172244	0.170570	88729.8	88668.9	86214	1.863819	86215.9	0.972315	15500.4	15498.9	4.994804	3.992981	2.617626	0.408094	0.341133	1.22842e+06	805300	0.072229	0.060378	3.239370	0.036490	996576	0.006458	1.4986e+08	2.69401e+07	0.179769	4.28765e+06	2.38509e+07	2.42333e+07	5.55037e+07	9.97782e+06	1.52262e+08	5.63934e+07
	70.5355	168.088	168.071	1.000001	1278	3005	735058	136141	5.835e+07	55586.2	58001.2	0.000047	747559	0.185211	0.172071	0.170402	89610.3	89564	87107.2	1.863819	87109	0.972569	15643.4	15642	4.994804	3.985927	2.610572	0.410640	0.343679	1.22625e+06	803129	0.072680	0.060828	3.240219	0.036127	996837	0.006394	1.51412e+08	2.71887e+07	0.179567	4.32722e+06	2.4098e+07	2.44834e+07	5.60787e+07	1.00699e+07	1.53834e+08	5.69756e+07
	71.4513	169.963	169.903	1.000001	1278	3005	730476	135009	5.84283e+07	55667.5	58071.5	0.000047	742848	0.184824	0.171685	0.170028	90178.7	90146.3	87687.5	1.863819	87689.4	0.972725	15711.3	15709.8	4.994804	3.979046	2.603691	0.413119	0.346157	1.22413e+06	801012	0.073118	0.061267	3.240739	0.035898	996997	0.006354	1.52421e+08	2.73067e+07	0.179153	4.346e+06	2.42586e+07	2.46448e+07	5.64523e+07	1.01136e+07	1.54848e+08	5.73511e+07
	72.3693	171.7	171.739	1.000001	1278	3005	723417	133750	5.8509e+07	55762	58143.6	0.000047	735677	0.184886	0.171748	0.170088	91057.6	91036.5	88575.8	1.863819	88577.6	0.972970	15874.6	15873.1	4.994804	3.971949	2.596593	0.415670	0.348709	1.22195e+06	798829	0.073570	0.061718	3.241555	0.035546	997248	0.006291	1.53965e+08	2.75905e+07	0.179200	4.39117e+06	2.45043e+07	2.48946e+07	5.70241e+07	1.02187e+07	1.56418e+08	5.79325e+07
	73.3025	173.675	173.605	1.000001	1278	3005	715829	132151	5.85898e+07	55857.9	58220.1	0.000047	727926	0.184613	0.171475	0.169824	92027.3	92024.5	89561.7	1.863819	89563.6	0.973239	16024	16022.5	4.994804	3.964828	2.589472	0.418225	0.351264	1.21976e+06	796638	0.074022	0.062171	3.242449	0.035168	997523	0.006224	1.55679e+08	2.78503e+07	0.178896	4.4325e+06	2.47771e+07	2.51704e+07	5.76589e+07	1.03149e+07	1.5815e+08	5.85742e+07
	74.2195	175.512	175.439	1.000001	1278	3005	710872	131154	5.86701e+07	55943	58282.9	0.000047	722869	0.184498	0.171361	0.169713	92671	92679.4	90214.7	1.863819	90216.6	0.973406	16129	16127.6	4.994804	3.957733	2.582377	0.420766	0.353804	1.21758e+06	794455	0.074472	0.062620	3.243008	0.034920	997695	0.006181	1.56814e+08	2.80328e+07	0.178765	4.46156e+06	2.49577e+07	2.53533e+07	5.80792e+07	1.03825e+07	1.593e+08	5.89999e+07
	75.2148	177.475	177.43	1.000001	1278	3005	704996	129865	5.87564e+07	56037.2	58363.6	0.000047	716858	0.184206	0.171071	0.169430	93448.2	93472.9	91006	1.863819	91007.9	0.973609	16241.7	16240.2	4.994804	3.950093	2.574738	0.423496	0.356534	1.21523e+06	792105	0.074955	0.063103	3.243683	0.034627	997903	0.006129	1.58189e+08	2.82286e+07	0.178448	4.49272e+06	2.51766e+07	2.55743e+07	5.85887e+07	1.0455e+07	1.60688e+08	5.95142e+07
	76.1396	179.35	179.279	1.000001	1278	3005	698864	128187	5.88368e+07	56130.9	58432.6	0.000047	710523	0.183422	0.170290	0.168672	94281.4	94331.5	91862.6	1.863819	91864.5	0.973828	16318.3	16316.8	4.994804	3.942965	2.567610	0.426038	0.359076	1.21303e+06	789912	0.075405	0.063553	3.244413	0.034321	998127	0.006075	1.59678e+08	2.83618e+07	0.177618	4.51391e+06	2.54136e+07	2.58113e+07	5.91401e+07	1.05044e+07	1.62178e+08	6.00658e+07
	77.0486	181.05	181.097	1.000001	1278	3005	694022	127253	5.89174e+07	56217	58503.5	0.000047	705592	0.183355	0.170224	0.168607	94940.2	95001.7	92530.7	1.863819	92532.6	0.973991	16429.6	16428.2	4.994804	3.935801	2.560446	0.428587	0.361626	1.21083e+06	787708	0.075856	0.064005	3.244956	0.034080	998295	0.006032	1.6084e+08	2.85554e+07	0.177539	4.54472e+06	2.55984e+07	2.59987e+07	5.95702e+07	1.05761e+07	1.63355e+08	6.05018e+07
	77.964	182.975	182.928	1.000001	1278	3005	688894	126170	5.89976e+07	56307.5	58575.6	0.000047	700352	0.183149	0.170018	0.168407	95650.5	95726.6	93253.7	1.863819	93255.5	0.974167	16537	16535.5	4.994804	3.928654	2.553298	0.431126	0.364164	1.20863e+06	785509	0.076305	0.064454	3.245542	0.033824	998475	0.005987	1.62096e+08	2.87419e+07	0.177314	4.57441e+06	2.57984e+07	2.62008e+07	6.00356e+07	1.06452e+07	1.64625e+08	6.09721e+07
	78.9107	184.95	184.821	1.000001	1278	3005	683523	124709	5.90804e+07	56398.6	58650.9	0.000047	694807	0.182451	0.169323	0.167732	96413.9	96513.9	94038.9	1.863819	94040.7	0.974356	16606.9	16605.5	4.994804	3.921270	2.545915	0.433743	0.366781	1.20636e+06	783238	0.076769	0.064917	3.246172	0.033556	998668	0.005939	1.63461e+08	2.88635e+07	0.176577	4.59377e+06	2.60156e+07	2.64181e+07	6.05411e+07	1.06902e+07	1.6599e+08	6.14777e+07
	79.8277	186.688	186.655	1.000001	1278	3005	678755	123656	5.91602e+07	56482.2	58721.5	0.000047	689927	0.182180	0.169054	0.167470	97095.9	97211.6	94734.5	1.863819	94736.4	0.974519	16702.3	16700.8	4.994804	3.914130	2.538775	0.436269	0.369307	1.20416e+06	781041	0.077216	0.065364	3.246715	0.033318	998836	0.005897	1.6467e+08	2.90293e+07	0.176287	4.62015e+06	2.62081e+07	2.66122e+07	6.0989e+07	1.07516e+07	1.67209e+08	6.19294e+07
	80.7905	188.675	188.581	1.000001	1278	3005	674179	122319	5.92447e+07	56577.4	58798.9	0.000047	685186	0.181434	0.168311	0.166748	97767.7	97907.2	95427.9	1.863819	95429.8	0.974678	16749.7	16748.3	4.994804	3.906560	2.531205	0.438941	0.371980	1.20183e+06	778712	0.077689	0.065837	3.247244	0.033089	998998	0.005856	1.65876e+08	2.91117e+07	0.175503	4.63327e+06	2.63999e+07	2.68034e+07	6.14354e+07	1.07821e+07	1.68411e+08	6.23744e+07
	81.7049	190.475	190.41	1.000001	1278	3005	670058	121357	5.93232e+07	56663.4	58873.6	0.000047	680959	0.181114	0.167993	0.166438	98374.6	98529.8	96048.5	1.863819	96050.4	0.974818	16826.1	16824.6	4.994804	3.899512	2.524156	0.441424	0.374463	1.19967e+06	776544	0.078128	0.066277	3.247709	0.032883	999141	0.005820	1.66954e+08	2.92444e+07	0.175164	4.65439e+06	2.65716e+07	2.69761e+07	6.18349e+07	1.08313e+07	1.69496e+08	6.27763e+07
	82.6068	192.325	192.214	1.000001	1278	3005	665601	119910	5.94016e+07	56747.4	58943.1	0.000047	676316	0.180153	0.167035	0.165507	99049.9	99233.1	96749.8	1.863819	96751.6	0.974976	16851.5	16850	4.994804	3.892462	2.517107	0.443903	0.376941	1.1975e+06	774375	0.078567	0.066715	3.248236	0.032661	999303	0.005781	1.68173e+08	2.92886e+07	0.174157	4.66142e+06	2.67656e+07	2.71684e+07	6.22863e+07	1.08476e+07	1.70704e+08	6.32239e+07
	83.5228	194.162	194.046	1.000001	1278	3005	661342	118805	5.9482e+07	56832	59017.2	0.000047	671929	0.179642	0.166527	0.165013	99696.6	99899.9	97414.5	1.863819	97416.3	0.975122	16914.9	16913.4	4.994804	3.885214	2.509859	0.446446	0.379484	1.19527e+06	772146	0.079017	0.067165	3.248722	0.032448	999453	0.005743	1.69329e+08	2.93988e+07	0.173620	4.67896e+06	2.69494e+07	2.73526e+07	6.27143e+07	1.08884e+07	1.71862e+08	6.36525e+07
	84.451	196.012	195.902	1.000001	1278	3005	657770	118120	5.95622e+07	56919.6	59092	0.000047	668291	0.179577	0.166462	0.164950	100239	100453	97965.9	1.863819	97967.8	0.975238	17003.6	17002.1	4.994804	3.877969	2.502613	0.448983	0.382022	1.19304e+06	769916	0.079466	0.067614	3.249110	0.032270	999572	0.005711	1.70287e+08	2.9553e+07	0.173548	4.7035e+06	2.7102e+07	2.75071e+07	6.30693e+07	1.09455e+07	1.72832e+08	6.4012e+07
	85.3608	197.85	197.722	1.000001	1278	3005	654397	116933	5.96421e+07	57003.1	59166	0.000047	664762	0.178688	0.165577	0.164088	100771	101010	98520.8	1.863819	98522.6	0.975354	17008.4	17006.9	4.994804	3.870735	2.495380	0.451511	0.384550	1.19081e+06	767691	0.079913	0.068062	3.249496	0.032101	999691	0.005682	1.71251e+08	2.95613e+07	0.172619	4.70482e+06	2.72555e+07	2.76586e+07	6.34265e+07	1.09486e+07	1.73784e+08	6.43645e+07
	86.3092	199.637	199.618	1.000001	1278	3005	650908	116162	5.97243e+07	57086.9	59242.9	0.000048	661192	0.178462	0.165352	0.163869	101316	101568	99076.6	1.863819	99078.5	0.975468	17080.7	17079.2	4.994804	3.863281	2.487925	0.454111	0.387149	1.18852e+06	765398	0.080374	0.068522	3.249876	0.031927	999808	0.005651	1.72218e+08	2.96869e+07	0.172380	4.72482e+06	2.74093e+07	2.78135e+07	6.37843e+07	1.09952e+07	1.74758e+08	6.47251e+07
	87.2551	201.6	201.51	1.000001	1278	3005	647298	115050	5.98077e+07	57180.8	59321	0.000048	657443	0.177740	0.164633	0.163169	101893	102169	99675.6	1.863819	99677.4	0.975591	17108.7	17107.2	4.994804	3.855703	2.480348	0.456748	0.389787	1.18619e+06	763067	0.080840	0.068989	3.250285	0.031746	999934	0.005619	1.73259e+08	2.97356e+07	0.171626	4.73257e+06	2.7575e+07	2.79781e+07	6.41699e+07	1.10132e+07	1.75792e+08	6.51081e+07
	88.1883	203.4	203.377	1.000001	1278	3005	644424	114266	5.98892e+07	57261.2	59394	0.000048	654476	0.177315	0.164210	0.162757	102355	102647	100151	1.863819	100153	0.975683	17145.8	17144.3	4.994804	3.848274	2.472918	0.459328	0.392367	1.1839e+06	760781	0.081297	0.069445	3.250593	0.031603	1.00003e+06	0.005593	1.74086e+08	2.98002e+07	0.171181	4.74284e+06	2.77066e+07	2.81096e+07	6.44762e+07	1.10371e+07	1.76618e+08	6.5414e+07
	89.1356	205.363	205.271	1.000001	1278	3005	641426	113405	5.99751e+07	57350.6	59479.9	0.000048	651374	0.176802	0.163699	0.162260	102843	103153	100655	1.863819	100657	0.975780	17178.1	17176.6	4.994804	3.840442	2.465086	0.462043	0.395081	1.18149e+06	758371	0.081777	0.069926	3.250916	0.031453	1.00013e+06	0.005567	1.74961e+08	2.98563e+07	0.170645	4.75177e+06	2.78458e+07	2.82484e+07	6.48003e+07	1.10579e+07	1.7749e+08	6.5737e+07
	90.0482	207.225	207.096	1.000001	1278	3005	638931	112556	6.00586e+07	57437	59554	0.000048	648769	0.176163	0.163063	0.161640	103256	103585	101084	1.863819	101086	0.975860	17184.2	17182.7	4.994804	3.832800	2.457444	0.464685	0.397724	1.17914e+06	756020	0.082245	0.070394	3.251181	0.031328	1.00021e+06	0.005545	1.75708e+08	2.98668e+07	0.169980	4.75345e+06	2.79647e+07	2.83658e+07	6.50769e+07	1.10618e+07	1.78228e+08	6.60104e+07
	90.9767	208.963	208.953	1.000001	1278	3005	636351	111739	6.01444e+07	57526	59636.6	0.000048	646087	0.175594	0.162496	0.161088	103684	104032	101529	1.863819	101531	0.975941	17199.5	17198	4.994804	3.824935	2.449580	0.467399	0.400438	1.17672e+06	753601	0.082726	0.070874	3.251453	0.031199	1.00029e+06	0.005522	1.76481e+08	2.98935e+07	0.169387	4.7577e+06	2.80877e+07	2.84878e+07	6.53632e+07	1.10717e+07	1.78994e+08	6.62942e+07
	91.9265	211	210.853	1.000001	1278	3005	633871	110990	6.0234e+07	57618.2	59719.1	0.000048	643515	0.175098	0.162002	0.160607	104099	104463	101958	1.863819	101960	0.976017	17219.6	17218.1	4.994804	3.816703	2.441348	0.470233	0.403272	1.17419e+06	751068	0.083227	0.071376	3.251706	0.031076	1.00037e+06	0.005500	1.77226e+08	2.99284e+07	0.168871	4.76324e+06	2.82064e+07	2.86057e+07	6.56393e+07	1.10846e+07	1.79735e+08	6.65686e+07
	92.8424	212.713	212.685	1.000001	1278	3005	631083	110476	6.03196e+07	57704.5	59801	0.000048	640680	0.175058	0.161963	0.160569	104559	104934	102426	1.863819	102428	0.976103	17294.2	17292.7	4.994804	3.808819	2.433463	0.472942	0.405980	1.17176e+06	748643	0.083707	0.071855	3.251991	0.030937	1.00046e+06	0.005475	1.7804e+08	3.00581e+07	0.168828	4.7839e+06	2.83359e+07	2.87369e+07	6.59407e+07	1.11326e+07	1.80559e+08	6.68739e+07
	93.7522	214.613	214.504	1.000001	1278	3005	628330	109673	6.0409e+07	57795.5	59881.4	0.000048	637830	0.174547	0.161454	0.160072	105026	105420	102909	1.863819	102911	0.976190	17321	17319.5	4.994804	3.800576	2.425221	0.475767	0.408805	1.16923e+06	746107	0.084207	0.072355	3.252281	0.030799	1.00055e+06	0.005451	1.7888e+08	3.01046e+07	0.168295	4.7913e+06	2.84696e+07	2.887e+07	6.62518e+07	1.11499e+07	1.81395e+08	6.71835e+07
	94.6687	216.425	216.337	1.000001	1278	3005	625479	108985	6.05009e+07	57892.5	59968.2	0.000048	634903	0.174243	0.161151	0.159777	105511	105919	103406	1.863819	103408	0.976278	17371.8	17370.3	4.994804	3.792067	2.416712	0.478676	0.411715	1.16661e+06	743489	0.084721	0.072870	3.252576	0.030657	1.00064e+06	0.005426	1.79744e+08	3.0193e+07	0.167978	4.80537e+06	2.86071e+07	2.90078e+07	6.65717e+07	1.11826e+07	1.82262e+08	6.75044e+07
	95.5964	218.3	218.193	1.000001	1278	3005	623089	108518	6.05942e+07	57984.2	60057.1	0.000048	632469	0.174162	0.161070	0.159699	105917	106335	103820	1.863819	103822	0.976347	17432.5	17431	4.994804	3.783420	2.408065	0.481626	0.414665	1.16395e+06	740829	0.085244	0.073392	3.252804	0.030537	1.00071e+06	0.005405	1.80462e+08	3.02985e+07	0.167894	4.82215e+06	2.87214e+07	2.91234e+07	6.68379e+07	1.12217e+07	1.82988e+08	6.77734e+07
	96.5311	220.175	220.062	1.000001	1278	3005	620144	107992	6.06919e+07	58091.5	60151.8	0.000048	629476	0.174141	0.161050	0.159678	106420	106849	104332	1.863819	104333	0.976436	17516.1	17514.6	4.994804	3.774336	2.398980	0.484717	0.417756	1.16116e+06	738034	0.085791	0.073939	3.253100	0.030391	1.0008e+06	0.005379	1.81352e+08	3.04437e+07	0.167871	4.84527e+06	2.8863e+07	2.92669e+07	6.71673e+07	1.12755e+07	1.83889e+08	6.81071e+07
	97.4481	221.988	221.896	1.000001	1278	3005	618704	107455	6.07894e+07	58187.8	60247	0.000048	627966	0.173678	0.160588	0.159229	106676	107119	104598	1.863819	104600	0.976470	17510.7	17509.2	4.994804	3.765251	2.389895	0.487801	0.420840	1.15836e+06	735239	0.086336	0.074485	3.253213	0.030319	1.00083e+06	0.005366	1.81815e+08	3.04343e+07	0.167391	4.84377e+06	2.89368e+07	2.93394e+07	6.7339e+07	1.1272e+07	1.84345e+08	6.82759e+07
	98.3641	223.863	223.728	1.000001	1278	3005	616478	106958	6.08914e+07	58290.8	60341.5	0.000048	625687	0.173498	0.160410	0.159055	107065	107519	104995	1.863819	104997	0.976531	17557.6	17556.1	4.994804	3.755721	2.380366	0.491027	0.424066	1.15543e+06	732308	0.086907	0.075056	3.253416	0.030208	1.0009e+06	0.005346	1.82506e+08	3.0516e+07	0.167206	4.85676e+06	2.90467e+07	2.94499e+07	6.75947e+07	1.13022e+07	1.85039e+08	6.85331e+07
	99.2795	225.613	225.559	1.000001	1278	3005	614600	106480	6.09948e+07	58390.8	60439.8	0.000048	623756	0.173251	0.160164	0.158815	107396	107862	105336	1.863819	105337	0.976578	17587.6	17586.1	4.994804	3.746035	2.370679	0.494298	0.427336	1.15245e+06	729328	0.087486	0.075635	3.253575	0.030114	1.00095e+06	0.005330	1.83097e+08	3.05681e+07	0.166950	4.86506e+06	2.91408e+07	2.95441e+07	6.78137e+07	1.13215e+07	1.85631e+08	6.87523e+07
	100.189	227.425	227.379	1.000001	1278	3005	612888	106193	6.10995e+07	58498.6	60537.6	0.000048	622020	0.173266	0.160179	0.158829	107696	108168	105638	1.863819	105640	0.976617	17640	17638.5	4.994804	3.736200	2.360845	0.497609	0.430648	1.14942e+06	726302	0.088072	0.076221	3.253705	0.030028	1.00099e+06	0.005315	1.83623e+08	3.06592e+07	0.166968	4.87956e+06	2.92246e+07	2.96291e+07	6.80087e+07	1.13553e+07	1.86165e+08	6.89502e+07
	101.104	229.35	229.209	1.000001	1278	3005	612000	105897	6.12078e+07	58600.8	60644.5	0.000048	621094	0.173035	0.159948	0.158605	107857	108336	105804	1.863819	105805	0.976625	17642.5	17641	4.994804	3.725994	2.350638	0.501036	0.434075	1.14628e+06	723162	0.088679	0.076827	3.253732	0.029984	1.00099e+06	0.005307	1.8391e+08	3.06635e+07	0.166730	4.88024e+06	2.92702e+07	2.96743e+07	6.8115e+07	1.13568e+07	1.86449e+08	6.90552e+07
	102.056	231.2	231.111	1.000001	1278	3005	610609	105784	6.13251e+07	58716.2	60761.5	0.000048	619704	0.173244	0.160157	0.158808	108098	108579	106044	1.863819	106046	0.976647	17705.9	17704.4	4.994804	3.714916	2.339560	0.504745	0.437783	1.14288e+06	719754	0.089335	0.077484	3.253804	0.029915	1.00102e+06	0.005295	1.84328e+08	3.07737e+07	0.166951	4.89778e+06	2.93366e+07	2.97427e+07	6.82695e+07	1.13977e+07	1.86879e+08	6.92144e+07
	102.972	233.2	232.944	1.000001	1278	3005	608507	105330	6.14448e+07	58839.5	60867.8	0.000048	617556	0.173097	0.160010	0.158665	108474	108966	106427	1.863819	106429	0.976698	17753.8	17752.3	4.994804	3.703567	2.328212	0.508532	0.441571	1.13938e+06	716263	0.090006	0.078154	3.253975	0.029810	1.00107e+06	0.005276	1.84994e+08	3.0857e+07	0.166800	4.91104e+06	2.94427e+07	2.98495e+07	6.85164e+07	1.14285e+07	1.8755e+08	6.9463e+07
	103.871	234.9	234.743	1.000001	1278	3005	607858	105104	6.15659e+07	58955.2	60987.4	0.000049	616878	0.172909	0.159823	0.158482	108594	109091	106549	1.863819	106551	0.976693	17753.8	17752.3	4.994804	3.692055	2.316699	0.512362	0.445400	1.13584e+06	712721	0.090683	0.078832	3.253957	0.029778	1.00106e+06	0.005270	1.85206e+08	3.08569e+07	0.166609	4.91102e+06	2.94764e+07	2.98827e+07	6.85947e+07	1.14285e+07	1.87759e+08	6.95403e+07
	104.785	236.738	236.57	1.000001	1278	3005	606921	105049	6.16946e+07	59082.6	61113.2	0.000049	615945	0.173085	0.159998	0.158654	108758	109256	106710	1.863819	106712	0.976694	17800.7	17799.2	4.994804	3.679772	2.304416	0.516434	0.449473	1.13206e+06	708942	0.091404	0.079553	3.253961	0.029731	1.00106e+06	0.005262	1.85486e+08	3.09384e+07	0.166796	4.924e+06	2.9521e+07	2.99288e+07	6.86985e+07	1.14587e+07	1.88049e+08	6.96476e+07
	105.702	238.613	238.405	1.000001	1278	3005	605789	105063	6.18291e+07	59219.8	61244.4	0.000049	614832	0.173431	0.160343	0.158989	108955	109451	106901	1.863819	106903	0.976700	17871.4	17869.9	4.994804	3.666904	2.291549	0.520685	0.453724	1.1281e+06	704983	0.092157	0.080305	3.253980	0.029675	1.00107e+06	0.005252	1.85818e+08	3.10614e+07	0.167160	4.94357e+06	2.95739e+07	2.99842e+07	6.88216e+07	1.15042e+07	1.88396e+08	6.97765e+07
	106.618	240.338	240.235	1.000001	1278	3005	606479	105381	6.1968e+07	59349.4	61383.4	0.000049	615566	0.173759	0.160669	0.159307	108825	109313	106758	1.863819	106760	0.976633	17884.7	17883.2	4.994804	3.653552	2.278196	0.525081	0.458119	1.124e+06	700876	0.092935	0.081083	3.253757	0.029709	1.001e+06	0.005258	1.8557e+08	3.10845e+07	0.167508	4.94725e+06	2.95344e+07	2.99458e+07	6.87296e+07	1.15128e+07	1.88155e+08	6.96872e+07
	107.53	242.188	242.061	1.000001	1278	3005	607259	105674	6.21127e+07	59483.4	61521.8	0.000049	616385	0.174018	0.160927	0.159559	108680	109160	106602	1.863819	106604	0.976561	17888.1	17886.6	4.994804	3.639597	2.264242	0.529657	0.462695	1.1197e+06	696583	0.093745	0.081893	3.253518	0.029748	1.00093e+06	0.005265	1.85298e+08	3.10904e+07	0.167786	4.94818e+06	2.9491e+07	2.99032e+07	6.86287e+07	1.1515e+07	1.87888e+08	6.95881e+07
	108.447	243.988	243.895	1.000001	1278	3005	607032	105707	6.22645e+07	59633.4	61670	0.000049	616167	0.174137	0.161045	0.159674	108719	109197	106634	1.863819	106636	0.976528	17907.4	17905.9	4.994804	3.624894	2.249539	0.534458	0.467497	1.11518e+06	692059	0.094594	0.082743	3.253406	0.029737	1.00089e+06	0.005263	1.85354e+08	3.1124e+07	0.167916	4.95353e+06	2.95e+07	2.9913e+07	6.86497e+07	1.15274e+07	1.87949e+08	6.96108e+07
	109.364	245.838	245.729	1.000001	1278	3005	609182	106829	6.2424e+07	59780.5	61832	0.000049	618478	0.175364	0.162268	0.160866	108313	108760	106192	1.863819	106194	0.976389	17970	17968.4	4.994804	3.609384	2.234029	0.539502	0.472541	1.11041e+06	687288	0.095487	0.083636	3.252945	0.029845	1.00075e+06	0.005282	1.84586e+08	3.12326e+07	0.169203	4.97082e+06	2.93778e+07	2.97954e+07	6.83653e+07	1.15676e+07	1.8721e+08	6.9337e+07
	110.28	247.725	247.561	1.000001	1278	3005	610462	107753	6.25967e+07	59938.2	62001	0.000049	619898	0.176510	0.163409	0.161977	108065	108486	105913	1.863819	105915	0.976281	18050	18048.5	4.994804	3.592502	2.217146	0.544968	0.478006	1.10522e+06	682094	0.096454	0.084603	3.252586	0.029909	1.00064e+06	0.005294	1.84101e+08	3.13717e+07	0.170405	4.99296e+06	2.93005e+07	2.97229e+07	6.81854e+07	1.16192e+07	1.86754e+08	6.91683e+07
	111.218	249.55	249.435	1.000001	1278	3005	612180	108520	6.27852e+07	60123.4	62186.8	0.000049	621724	0.177269	0.164164	0.162713	107747	108148	105569	1.863819	105571	0.976154	18076	18074.5	4.994804	3.573992	2.198637	0.550930	0.483969	1.09952e+06	676400	0.097510	0.085658	3.252162	0.029996	1.00051e+06	0.005309	1.83503e+08	3.1417e+07	0.171207	5.00017e+06	2.92055e+07	2.96304e+07	6.79642e+07	1.16359e+07	1.86173e+08	6.89531e+07
	112.127	251.45	251.253	1.000001	1278	3005	614537	109850	6.29734e+07	60296.8	62371.6	0.000049	624277	0.178753	0.165642	0.164151	107307	107672	105087	1.863819	105089	0.975995	18157.1	18155.6	4.994804	3.555417	2.180062	0.556882	0.489920	1.09381e+06	670685	0.098563	0.086712	3.251631	0.030114	1.00035e+06	0.005330	1.82665e+08	3.15579e+07	0.172764	5.02259e+06	2.90719e+07	2.95026e+07	6.76535e+07	1.16881e+07	1.85371e+08	6.86558e+07
	113.043	253.137	253.086	1.000001	1278	3005	617466	111410	6.31716e+07	60475.1	62575.4	0.000049	627436	0.180430	0.167312	0.165776	106766	107090	104499	1.863819	104501	0.975807	18239.4	18237.9	4.994804	3.535742	2.160386	0.563152	0.496191	1.08775e+06	664632	0.099673	0.087821	3.251005	0.030261	1.00016e+06	0.005356	1.81643e+08	3.1701e+07	0.174524	5.04537e+06	2.89093e+07	2.93463e+07	6.7275e+07	1.17411e+07	1.84388e+08	6.82919e+07
	113.96	255.1	254.921	1.000001	1278	3005	620420	113168	6.3379e+07	60668.1	62779.1	0.000050	630657	0.182406	0.169278	0.167688	106221	106498	103900	1.863819	103902	0.975611	18350.2	18348.7	4.994804	3.515042	2.139686	0.569711	0.502750	1.08138e+06	658264	0.100834	0.088982	3.250353	0.030409	999955	0.005382	1.80602e+08	3.18935e+07	0.176596	5.07601e+06	2.87436e+07	2.91884e+07	6.68896e+07	1.18124e+07	1.83396e+08	6.79246e+07
	114.877	256.9	256.754	1.000001	1278	3005	622690	115234	6.35901e+07	60866.1	62988.2	0.000050	633263	0.185058	0.171919	0.170254	105784	106003	103399	1.863819	103401	0.975434	18548.7	18547.1	4.994804	3.493839	2.118483	0.576389	0.509428	1.07486e+06	651741	0.102016	0.090164	3.249764	0.030524	999774	0.005403	1.79731e+08	3.22385e+07	0.179371	5.13092e+06	2.8605e+07	2.90615e+07	6.65669e+07	1.19402e+07	1.82599e+08	6.76293e+07
	115.792	258.675	258.585	1.000001	1278	3005	626749	118105	6.38069e+07	61065.2	63207.4	0.000050	637780	0.188440	0.175285	0.173523	105035	105177	102566	1.863819	102568	0.975175	18762.4	18760.8	4.994804	3.471932	2.096577	0.583246	0.516285	1.06812e+06	645001	0.103229	0.091378	3.248901	0.030729	999508	0.005439	1.78283e+08	3.261e+07	0.182912	5.19003e+06	2.83746e+07	2.88453e+07	6.60306e+07	1.20778e+07	1.81241e+08	6.71261e+07
	116.702	260.525	260.403	1.000001	1278	3005	631243	120583	6.40355e+07	61275.1	63436.8	0.000050	642657	0.191024	0.177857	0.176017	104238	104317	101699	1.863819	101701	0.974900	18879.7	18878.1	4.994804	3.448684	2.073328	0.590476	0.523514	1.06097e+06	637849	0.104509	0.092657	3.247983	0.030954	999226	0.005479	1.76776e+08	3.28139e+07	0.185624	5.22248e+06	2.81347e+07	2.86153e+07	6.54724e+07	1.21533e+07	1.79795e+08	6.65908e+07
	117.618	262.363	262.235	1.000001	1278	3005	635493	123528	6.427e+07	61492.5	63673.1	0.000050	647387	0.194381	0.181198	0.179254	103476	103479	100853	1.863819	100855	0.974622	19077.6	19076	4.994804	3.424664	2.049309	0.597894	0.530932	1.05358e+06	630460	0.105822	0.093970	3.247059	0.031168	998941	0.005516	1.75306e+08	3.31578e+07	0.189143	5.27723e+06	2.79008e+07	2.83954e+07	6.4928e+07	1.22807e+07	1.78414e+08	6.60792e+07
	118.526	264.212	264.053	1.000001	1278	3005	640876	127018	6.45152e+07	61711.6	63925.8	0.000050	653342	0.198194	0.184993	0.182925	102533	102449	99814.4	1.863819	99816.2	0.974288	19280.2	19278.6	4.994804	3.399368	2.024013	0.605650	0.538689	1.0458e+06	622677	0.107195	0.095343	3.245943	0.031439	998598	0.005564	1.735e+08	3.351e+07	0.193141	5.33328e+06	2.76134e+07	2.81237e+07	6.42593e+07	1.24111e+07	1.76706e+08	6.54468e+07
	119.44	266.062	265.88	1.000001	1278	3005	645252	129560	6.47665e+07	61936.4	64171.1	0.000050	658131	0.200790	0.187576	0.185422	101787	101641	98998.8	1.863819	99000.6	0.974000	19393.2	19391.6	4.994804	3.373252	1.997897	0.613597	0.546636	1.03776e+06	614643	0.108601	0.096750	3.244986	0.031659	998304	0.005603	1.72082e+08	3.37063e+07	0.195873	5.36453e+06	2.73877e+07	2.79082e+07	6.37342e+07	1.24838e+07	1.75352e+08	6.49453e+07
	120.372	267.875	267.743	1.000001	1278	3005	653035	134325	6.50246e+07	62173.2	64437.2	0.000051	666706	0.205693	0.192455	0.190130	100478	100219	97567.8	1.863819	97569.6	0.973544	19615.1	19613.5	4.994804	3.346205	1.970850	0.621763	0.554801	1.02944e+06	606322	0.110046	0.098195	3.243465	0.032050	997836	0.005673	1.69595e+08	3.40921e+07	0.201021	5.42593e+06	2.69919e+07	2.75318e+07	6.2813e+07	1.26267e+07	1.72988e+08	6.40695e+07
	121.288	269.75	269.576	1.000001	1278	3005	659834	137632	6.52821e+07	62393.5	64702	0.000051	674035	0.208586	0.195333	0.192904	99385.1	99056.7	96396.3	1.863819	96398.2	0.973143	19674.1	19672.5	4.994804	3.319004	1.943649	0.629908	0.562947	1.02107e+06	597954	0.111488	0.099637	3.242131	0.032391	997425	0.005733	1.67559e+08	3.41946e+07	0.204075	5.44224e+06	2.66678e+07	2.72174e+07	6.20588e+07	1.26647e+07	1.71012e+08	6.33379e+07
	122.206	271.475	271.411	1.000001	1278	3005	667296	141619	6.5544e+07	62626.1	64964.4	0.000051	682159	0.212228	0.198957	0.196392	98201.6	97788.5	95118.9	1.863819	95120.7	0.972701	19778.7	19777.1	4.994804	3.291105	1.915750	0.638193	0.571231	1.01249e+06	589371	0.112954	0.101103	3.240658	0.032766	996972	0.005799	1.65338e+08	3.43765e+07	0.207916	5.47118e+06	2.63144e+07	2.68771e+07	6.12364e+07	1.2732e+07	1.68874e+08	6.2546e+07
	123.138	273.4	273.276	1.000001	1278	3005	676416	146268	6.58178e+07	62869.1	65246.6	0.000051	692050	0.216240	0.202947	0.200228	96798	96291.9	93612.6	1.863819	93614.5	0.972176	19862.2	19860.6	4.994804	3.261687	1.886332	0.646852	0.579891	1.00344e+06	580321	0.114487	0.102635	3.238907	0.033223	996434	0.005880	1.6272e+08	3.45216e+07	0.212153	5.49428e+06	2.58977e+07	2.64741e+07	6.02667e+07	1.27858e+07	1.66342e+08	6.16081e+07
	124.055	275.2	275.109	1.000001	1278	3005	686563	150709	6.60876e+07	63091.9	65527.8	0.000051	702910	0.219512	0.206201	0.203351	95302.5	94718.7	92029.7	1.863819	92031.5	0.971611	19846.2	19844.6	4.994804	3.232426	1.857071	0.655387	0.588426	994440	571319	0.115998	0.104146	3.237025	0.033732	995854	0.005970	1.59969e+08	3.44937e+07	0.215628	5.48984e+06	2.54598e+07	2.60449e+07	5.92477e+07	1.27755e+07	1.63645e+08	6.06094e+07

	BALANCE ZERO CALIBRATION RESULTS:
Date:	2/16/2016 3:55:56 PM
Zero Displacement Value:	45367595
Rebalance Force Value:	1980.000

	FORCE FACTOR CALIBRATION RESULTS:
Date:	7/27/2015 3:21:49 PM
Force Factor Value:	  383.599

	SPRING CALIBRATION RESULTS:
Date:	12/4/2014 2:37:24 PM
Stiffness polynomial = 	4.3980e-005, -7.5231e-014, 2.5704e-020, -3.6776e-029, -1.5883e-035, 2.9932e-045, 1.3748e-050
Spring Damping =	0.000593

	FORCE DISPLACEMENT CALIBRATION RESULTS:
Date:	2/22/2016 4:13:16 PM
Displacement Factor Value:	30874

	DE-MOD CONSTANT CALIBRATION RESULTS:
Date:	2/22/2016 4:13:16 PM
De-Mod Constant Value:	0.000562

	PHASE OFFSET CALIBRATION RESULTS:
Date:	2/22/2016 4:13:16 PM
Phase Offset Value:	   -0.009200

	DRIVE SHAFT MASS CALIBRATION RESULTS:
Date:	2/22/2016 4:13:16 PM
Drive Shaft Mass = 	   37.868 g

	OVEN CALIBRATION RESULTS:
Date:	2/22/2016 4:13:16 PM
Sensor Type = 	10
Oven Resistance = 	5.600 Ohms
Oven Name = 	Standard Air OvenStandard Air Oven

	TEMPERATURE CALIBRATION:
Date:	2/22/2016 4:13:16 PM
Upper Limit = 	400.00 °C
Lower Limit = 	-200.00 °C
Offset = 	-6.000
Span = 	-8.700
Ambient: 	Expected 	21.00 (°C)	Measured 	21.00 (°C)
Indium: 	Expected 	156.60 (°C)	Measured 	156.60 (°C)

	PID CALIBRATION:
Date:	12/16/2014 11:36:02 AM
Set Point =	 105.000 °C
PropBand = 	23.000
PropBandSP2 = 	13.000
Integral = 	2.100
Derivative = 	9.000
Calculated Integral = 	-57

	STIFFNESS INFINITY CALIBRATION RESULTS:
Date:	2/22/2016 4:13:16 PM
Stiffness Infinity = 	6130000.000

	INSTRUMENT INFOMATION CALIBRATION RESULTS:
Date:	2/22/2016 4:13:16 PM
DMA Serial Number = 	3066274
Vibrator Serial Number = 	22865
LVDT Serial Number = 	624.08
Analogue PCB Serial Number = 	890
Digital PCB Serial Number = 	895
PIC Code = 	603
FPGA Code = 	621
Instrument Type = 	2
AD Fitted = 	No

	PROFILE VALUES FOR THIS DATA:

Software Version	11.1.0.0488
Firmware Version	603.621
Load Temperature	22.0 °C
Go To Temp Rate	2.0 °C/min
Load Strain	0.010 mm
Load Frequency	1.0 Hz
Strain control window	0.02
Cooling Device
Automatic cryogenic control is 	Off
Automatic cryogenic control on temperature	50.0
Automatic cryogenic control off temperature	40.0
Number of averages	2
Broken sample threshold	0.0 %
Poisson's Ratio	0.35