File: FirefighterJacket/data/DMA/Nomex 1 Temperature Scan 2.txt
Filename:	P:\+Courses\MatSci\Spring2016\Emily_Adam\DMA\Nomex 1 Temperature Scan 2.dm8d
Operator ID:	Adam
Sample ID:	Nomex #1
Comment: 	Temperature Scan at .030 mm
Serial Number:	3066274
Data Collected:	2/23/2016 4:20:30 AM
Validation
Validated:	No
By:
Date:
Calibration Information
Filename:	C:\Program Files (x86)\PerkinElmer\Pyris\Calibrations\2_16_16 Tension.dm8c
Date/Time:
Initial Conditions
Temperature:
Measuring System:	Tension - Rectangle
Clamp Mass	9.343 g
Length:	5.650 mm
Width:	5.910 mm
Thickness:	0.550 mm
End Condition:	Go To Load
Total Points in Run:	4474
Method Steps:
Pre-Run Actions
Start the Run
	Action occurs Immediately
Switch the Gas to Nitrogen at 20.0 ml/min
	Action occurs Immediately
1)	Heat from 250.00°C to 390.00°C at 2.00°C/min

2)	Cool from 390.00°C to 40.00°C at 2.00°C/min

3)	Heat from 40.00°C to 390.00°C at 2.00°C/min

4)	Cool from 390.00°C to 40.00°C at 2.00°C/min

1) DMA8000 Temperature Scan
	Time     	Sample     	Program     	Frequency     	Raw Dynamic	Raw Static	In-Phase     	Out-Of-Phase	Zero Displacement	Min Displacement	Max Displacement	Spring     	C*     	Measured     	Corrected     	Corrected     	Stiffness*	Total     	Stiffness     	Inertia     	Sample     	Ratio of     	Total     	Sample     	Total Applied	Static Force	Static     	Static     	Static     	Static Stress	Static     	Static Strain	Static     	Dynamic Force	Displacement	Dynamic     	Dynamic     	Storage     	Loss Modulus	Tan Delta     	Loss Viscosity	Storage     	Complex     	Shear Storage	Shear Loss	Complex     	Shear Complex
	          	Temperature	Temperature	          	Force     	Force     	Angle     	Angle     	               	               	               	Stiffness     	          	Tan Delta     	Total Tan Delta	Total Delta	          	Stiffness'	Less Spring	          	Stiffness'	Sample to Total	Stiffness''	Stiffness''	Static Force	          	Force Corrected	Displacement	Displacement Co	          	Stress Correcte	          	Strain Correcte	          	Amplitude     	Stress     	Strain     	Modulus     	          	          	               	Viscosity     	Viscosity     	Modulus     	Modulus     	Modulus     	Modulus
	0.000000	250.325	250	1.000001	32	2071	623755	30306	4.21579e+07	40197.4	42159.1	0.000044	624491	0.048586	0.035830	0.035815	2685.94	2685.4	353.572	1.863819	355.436	0.132267	96.2599	94.8783	0.125131	0.361869	0.000000	0.101525	0.000000	111327	0.000000	0.017969	0.000000	0.011034	0.031036	3394.49	0.005493	617816	164917	0.266935	26247.3	98328.5	101771	228821	61080.3	639449	236833
	0.695240	251.625	251.39	1.000001	31	2069	598014	27902.5	4.20113e+07	40091.4	41964.5	0.000045	598664	0.046659	0.033904	0.033891	2714.26	2713.9	380.209	1.863819	382.072	0.140687	92.0535	90.6707	0.114703	0.362449	0.000580	0.106160	0.004636	111506	178.387	0.018789	0.000820	0.011369	0.029755	3497.75	0.005266	664116	157603	0.237313	25083.3	105697	108633	245969	58371.6	682561	252800
	1.349661	252.938	252.699	1.000001	31	2069	594993	27935.8	4.20014e+07	40074.4	41963.6	0.000045	595648	0.046951	0.034197	0.034183	2728	2727.62	393.8	1.863819	395.664	0.144959	93.3171	91.9343	0.114703	0.363196	0.001327	0.106475	0.004950	111735	408.231	0.018845	0.000876	0.011715	0.029605	3603.96	0.005240	687741	159800	0.232355	25432.9	109457	112373	254719	59185.1	706062	261504
	2.008502	254.325	254.017	1.000001	31	2069	595439	27639.9	4.19906e+07	40070.1	41959.8	0.000045	596080	0.046419	0.033665	0.033652	2726.03	2725.69	391.733	1.863819	393.597	0.144304	91.8018	90.4189	0.114703	0.364010	0.002141	0.106817	0.005292	111986	658.577	0.018906	0.000937	0.011662	0.029627	3587.67	0.005244	684148	157166	0.229725	25013.7	108885	111722	253388	58209.5	701968	259988
	2.667083	255.688	255.334	1.000001	31	2069	594059	27664.8	4.19818e+07	40054	41932.4	0.000045	594703	0.046569	0.033815	0.033802	2732.34	2731.99	397.921	1.863819	399.785	0.146235	92.4229	91.0399	0.114703	0.364667	0.002798	0.107093	0.005568	112188	860.741	0.018955	0.000986	0.011818	0.029558	3635.67	0.005231	694903	158245	0.227722	25185.4	110597	113429	257372	58609.2	712693	263961
	3.317863	256.962	256.636	1.000001	31	2069	592648	27771.1	4.19768e+07	40060.1	41928.4	0.000045	593299	0.046859	0.034105	0.034092	2738.81	2738.44	404.297	1.863819	406.161	0.148218	93.4355	92.0524	0.114703	0.365043	0.003174	0.107252	0.005727	112304	976.594	0.018983	0.001014	0.011978	0.029488	3684.98	0.005219	705987	160005	0.226640	25465.6	112361	115211	261477	59261.1	723891	268108
	3.976185	258.2	257.952	1.000001	31	2069	592367	27600.2	4.19691e+07	40051.2	41926.9	0.000045	593010	0.046593	0.033839	0.033826	2740.14	2739.79	405.555	1.863819	407.419	0.148603	92.7529	91.3698	0.114703	0.365627	0.003759	0.107497	0.005972	112483	1156.31	0.019026	0.001057	0.012009	0.029474	3694.56	0.005217	708173	158818	0.224265	25276.7	112709	115509	262286	58821.6	725763	268801
	4.633205	259.562	259.266	1.000001	31	2069	593440	27389	4.19593e+07	40038.6	41909.1	0.000045	594072	0.046153	0.033399	0.033387	2735.24	2734.94	400.569	1.863819	402.432	0.147045	91.3851	90.0019	0.114703	0.366363	0.004495	0.107807	0.006282	112710	1382.72	0.019081	0.001112	0.011883	0.029527	3655.82	0.005226	699506	156441	0.223645	24898.3	111330	114080	259076	57941	716786	265476
	5.279306	260.863	260.559	1.000001	31	2069	588280	27868.6	4.19534e+07	40044.2	41896.2	0.000045	588940	0.047373	0.034618	0.034604	2759.08	2758.66	424.22	1.863819	426.084	0.154349	95.5423	94.1591	0.114703	0.366808	0.004939	0.107993	0.006468	112847	1519.38	0.019114	0.001145	0.012473	0.029271	3837.4	0.005181	740617	163667	0.220987	26048.4	117873	120717	274303	60617.3	758486	280921
	5.938407	262.1	261.877	1.000001	31	2069	591912	28105.8	4.19451e+07	40030.9	41890.9	0.000045	592579	0.047483	0.034728	0.034714	2742.13	2741.7	407.152	1.863819	409.016	0.149082	95.2559	93.8726	0.114703	0.367428	0.005559	0.108254	0.006729	113037	1710.14	0.019160	0.001191	0.012048	0.029451	3706.46	0.005213	710949	163169	0.229508	25969.1	113151	116093	263315	60432.9	729433	270161
	6.592535	263.45	263.185	1.000001	31	2069	589027	28092.9	4.1937e+07	40031	41887	0.000045	589696	0.047694	0.034938	0.034924	2755.54	2755.09	420.433	1.863819	422.297	0.153175	96.3014	94.918	0.114703	0.368038	0.006169	0.108510	0.006986	113225	1897.94	0.019205	0.001236	0.012379	0.029308	3808.23	0.005187	734035	164986	0.224766	26258.3	116825	119740	271865	61105.9	752348	278647
	7.250076	264.7	264.5	1.000001	31	2069	593447	27954.4	4.19264e+07	40010	41886	0.000045	594105	0.047105	0.034350	0.034337	2735.09	2734.7	399.898	1.863819	401.762	0.146813	93.9795	92.5961	0.114703	0.368838	0.006969	0.108846	0.007322	113471	2143.92	0.019265	0.001296	0.011864	0.029528	3650.04	0.005226	698340	160950	0.230475	25616	111144	114058	258644	59611.1	716647	265425
	7.907876	266.1	265.816	1.000001	31	2069	593134	27486.4	4.19182e+07	39997.6	41877.6	0.000045	593771	0.046341	0.033587	0.033574	2736.63	2736.31	401.399	1.863819	403.263	0.147275	91.945	90.5615	0.114703	0.369458	0.007589	0.109107	0.007582	113662	2334.64	0.019311	0.001342	0.011902	0.029512	3661.53	0.005223	700950	157413	0.224572	25053.1	111560	114338	259611	58301.3	718408	266077
	8.561777	267.35	267.124	1.000001	31	2069	594036	27802.4	4.1908e+07	39986	41862.4	0.000045	594686	0.046803	0.034048	0.034035	2732.42	2732.05	397.009	1.863819	398.873	0.145898	93.0624	91.6788	0.114703	0.370226	0.008357	0.109430	0.007905	113898	2570.92	0.019368	0.001399	0.011791	0.029557	3627.31	0.005231	693319	159356	0.229845	25362.2	110345	113222	256785	59020.6	711397	263480
	9.221138	268.762	268.442	1.000001	31	2069	595274	27626.9	4.18974e+07	39977.6	41858.5	0.000045	595915	0.046410	0.033656	0.033644	2726.78	2726.45	391.268	1.863819	393.132	0.144094	91.8028	90.4192	0.114703	0.371023	0.009155	0.109765	0.008240	114143	2816.35	0.019427	0.001458	0.011645	0.029618	3582.44	0.005242	683340	157166	0.229997	25013.7	108757	111596	253089	58209.6	701181	259697
	9.875039	270	269.75	1.000001	31	2069	595826	28093.8	4.18854e+07	39973.5	41843.6	0.000045	596487	0.047151	0.034396	0.034383	2724.16	2723.76	388.423	1.863819	390.287	0.143192	93.7284	92.3447	0.114703	0.371926	0.010057	0.110143	0.008619	114421	3093.88	0.019494	0.001525	0.011572	0.029646	3560.02	0.005247	678394	160513	0.236607	25546.4	107970	110951	251257	59449.2	697125	258194
	10.5341	271.262	271.068	1.000001	31	2069	597000	28115.4	4.18731e+07	39956.1	41832.8	0.000045	597662	0.047094	0.034340	0.034326	2718.81	2718.41	382.909	1.863819	384.773	0.141446	93.3905	92.0067	0.114703	0.372854	0.010985	0.110533	0.009008	114707	3379.4	0.019563	0.001594	0.011431	0.029705	3516.63	0.005257	668810	159925	0.239119	25452.9	106444	109445	247708	59231.7	687665	254691
	11.1873	272.637	272.375	1.000001	31	2069	598894	28568.8	4.18589e+07	39941.1	41830.1	0.000045	599576	0.047702	0.034947	0.034933	2710.13	2709.68	373.984	1.863819	375.848	0.138611	94.737	93.353	0.114703	0.373923	0.012054	0.110982	0.009457	115035	3708.33	0.019643	0.001674	0.011202	0.029799	3446.12	0.005274	653297	162266	0.248380	25825.4	103975	107135	241962	60098.4	673147	249314
	11.8458	273.925	273.692	1.000001	31	2069	600565	28329.2	4.18432e+07	39923.6	41812	0.000045	601233	0.047171	0.034416	0.034403	2702.66	2702.25	366.352	1.863819	368.216	0.136169	93.0421	91.658	0.114703	0.375110	0.013241	0.111480	0.009955	115401	4073.5	0.019731	0.001762	0.011004	0.029882	3385.41	0.005289	640031	159319	0.248925	25356.5	101864	104973	237049	59007.2	659562	244282
	12.5	275.225	275	1.000001	31	2069	602796	27989	4.18276e+07	39896.5	41794.6	0.000045	603446	0.046432	0.033678	0.033665	2692.75	2692.41	356.297	1.863819	358.16	0.132934	90.7142	89.33	0.114703	0.376284	0.014415	0.111973	0.010448	115762	4434.63	0.019818	0.001849	0.010743	0.029993	3304.99	0.005308	622552	155273	0.249413	24712.4	99082.2	102118	230575	57508.5	641624	237638
	13.1549	276.55	276.31	1.000001	31	2069	605561	28091.2	4.18117e+07	39878.1	41789.4	0.000045	606212	0.046389	0.033635	0.033622	2680.46	2680.12	343.794	1.863819	345.657	0.128881	90.1843	88.8	0.114703	0.377482	0.015613	0.112475	0.010950	116130	4803.23	0.019907	0.001938	0.010415	0.030130	3204.24	0.005333	600820	154352	0.256902	24565.8	95623.3	98728.4	222526	57167.3	620329	229752
	13.8094	277.938	277.619	1.000001	31	2069	607096	27939.1	4.17954e+07	39863.4	41771.2	0.000045	607738	0.046021	0.033267	0.033255	2673.73	2673.42	336.874	1.863819	338.738	0.126618	88.976	87.5915	0.114703	0.378714	0.016845	0.112992	0.011467	116509	5182.27	0.019999	0.002030	0.010232	0.030207	3147.95	0.005346	588792	152251	0.258582	24231.5	93709.1	96791.3	218071	56389.3	608158	225244
	14.4589	279.2	278.918	1.000001	31	2069	609855	28001.6	4.17793e+07	39845	41759.6	0.000045	610497	0.045915	0.033162	0.033149	2661.65	2661.34	324.58	1.863819	326.444	0.122576	88.2927	86.9081	0.114703	0.379924	0.018055	0.113499	0.011975	116882	5554.67	0.020088	0.002119	0.009906	0.030344	3047.47	0.005371	567424	151063	0.266227	24042.4	90308.2	93453.8	210157	55949.3	587188	217477
	15.1161	280.438	280.232	1.000001	31	2069	612382	28199.2	4.17632e+07	39822.5	41747.6	0.000045	613030	0.046049	0.033295	0.033282	2650.65	2650.33	313.347	1.863819	315.211	0.118849	88.2801	86.8954	0.114703	0.381143	0.019274	0.114010	0.012485	117257	5929.61	0.020179	0.002210	0.009605	0.030470	2954.82	0.005393	547898	151041	0.275674	24038.9	87200.6	90453.4	202925	55941.1	568336	210495
	15.8135	281.863	281.627	1.000001	30	2069	594244	27068.5	4.17464e+07	39834.9	41701	0.000045	594860	0.045551	0.032798	0.032786	2643.5	2643.22	306.009	1.863819	307.872	0.116394	86.7293	85.3444	0.114703	0.382405	0.020536	0.114539	0.013014	117645	6317.73	0.020272	0.002303	0.009103	0.029567	2800.44	0.005233	535142	148345	0.277207	23609.8	85170.4	88382.3	198201	54942.7	555323	205675
	16.471	283.238	282.942	1.000001	30	2069	596438	27308.9	4.17327e+07	39820.1	41696.5	0.000045	597062	0.045787	0.033033	0.033021	2633.75	2633.44	296.048	1.863819	297.912	0.113046	87.0283	85.6433	0.114703	0.383442	0.021574	0.114974	0.013449	117964	6636.98	0.020349	0.002380	0.008841	0.029676	2719.89	0.005252	517829	148865	0.287479	23692.5	82414.9	85752.9	191788	55135.1	538802	199556
	17.1249	284.413	284.25	1.000001	30	2069	598122	27024.2	4.17192e+07	39802.4	41681.6	0.000045	598733	0.045182	0.032429	0.032418	2626.4	2626.15	288.566	1.863819	290.43	0.110513	85.1995	83.8144	0.114703	0.384462	0.022593	0.115401	0.013876	118278	6950.56	0.020425	0.002456	0.008643	0.029760	2658.94	0.005267	504824	145686	0.288588	23186.6	80345.1	83623.9	186972	53957.7	525425	194602
	17.7884	285.812	285.577	1.000001	30	2069	599576	27243.8	4.17071e+07	39786.8	41673.9	0.000045	600194	0.045438	0.032685	0.032674	2620.01	2619.73	281.98	1.863819	283.844	0.108272	85.6629	84.2778	0.114703	0.385373	0.023504	0.115782	0.014258	118558	7230.9	0.020492	0.002523	0.008468	0.029833	2605.01	0.005280	493376	146491	0.296916	23314.8	78523.2	81911.4	182732	54256	514665	190617
	18.4467	287.2	286.893	1.000001	30	2069	600844	26913.8	4.1696e+07	39780.8	41660.9	0.000045	601447	0.044793	0.032041	0.032030	2614.55	2614.32	276.425	1.863819	278.289	0.106372	83.8005	82.4152	0.114703	0.386211	0.024342	0.116133	0.014609	118816	7488.85	0.020555	0.002586	0.008319	0.029895	2559.3	0.005291	483721	143254	0.296150	22799.5	76986.5	80291.6	179156	53056.9	504487	186847
	19.0954	288.575	288.191	1.000001	30	2069	601485	27061.1	4.16872e+07	39770.1	41655.4	0.000045	602093	0.044991	0.032238	0.032227	2611.74	2611.5	273.478	1.863819	275.342	0.105359	84.2249	82.8395	0.114703	0.386879	0.025011	0.116413	0.014888	119022	7694.37	0.020604	0.002635	0.008240	0.029927	2534.94	0.005297	478598	143991	0.300860	22916.9	76171.2	79543.9	177259	53330.1	499790	185107
	19.7454	289.775	289.491	1.000001	30	2069	602604	26792.2	4.16786e+07	39762.2	41649	0.000045	603200	0.044461	0.031709	0.031698	2606.95	2606.75	268.611	1.863819	270.475	0.103685	82.6914	81.306	0.114703	0.387533	0.025664	0.116687	0.015162	119222	7895.32	0.020652	0.002683	0.008109	0.029983	2494.66	0.005307	470137	141326	0.300605	22492.7	74824.6	78132.2	174125	52342.8	490920	181822
	20.397	291.087	290.794	1.000001	30	2069	603614	27419.5	4.1671e+07	39745.6	41640	0.000045	604236	0.045426	0.032672	0.032661	2602.48	2602.19	263.952	1.863819	265.816	0.102078	85.0561	83.6706	0.114703	0.388101	0.026232	0.116924	0.015400	119397	8070.06	0.020695	0.002726	0.007983	0.030034	2455.98	0.005316	462040	145436	0.314769	23146.8	73535.9	77092.8	171126	53865.1	484389	179403
	21.0514	292.525	292.103	1.000001	30	2069	603942	27251.5	4.16642e+07	39740.9	41630.6	0.000045	604556	0.045123	0.032370	0.032359	2601.1	2600.84	262.507	1.863819	264.37	0.101575	84.2247	82.8392	0.114703	0.388615	0.026746	0.117140	0.015615	119555	8228.26	0.020733	0.002764	0.007944	0.030050	2443.89	0.005319	459527	143991	0.313345	22916.8	73135.9	76642.3	170195	53329.9	481558	178355
	21.7134	293.6	293.427	1.000001	30	2069	604391	27381.5	4.16586e+07	39731.4	41628.4	0.000045	605011	0.045304	0.032551	0.032540	2599.15	2598.87	260.457	1.863819	262.321	0.100864	84.6324	83.2468	0.114703	0.389040	0.027171	0.117318	0.015793	119686	8359.12	0.020764	0.002795	0.007888	0.030072	2426.78	0.005323	455964	144699	0.317347	23029.6	72568.9	76135.5	168876	53592.3	478374	177175
	22.3704	295.025	294.741	1.000001	30	2069	605169	27601.4	4.16535e+07	39728.5	41629.2	0.000045	605798	0.045609	0.032856	0.032844	2595.77	2595.47	256.982	1.863819	258.846	0.099658	85.3128	83.9272	0.114703	0.389423	0.027554	0.117478	0.015953	119804	8476.92	0.020793	0.002824	0.007794	0.030111	2397.77	0.005329	449924	145882	0.324236	23217.8	71607.6	75277.6	166639	54030.3	472983	175179
	23.0243	296.488	296.049	1.000001	30	2069	605169	27062.8	4.16482e+07	39720.6	41622.5	0.000045	605774	0.044719	0.031967	0.031956	2595.87	2595.65	257.087	1.863819	258.951	0.099692	83.0098	81.6242	0.114703	0.389827	0.027958	0.117647	0.016122	119928	8601.03	0.020822	0.002853	0.007797	0.030111	2398.58	0.005329	450107	141879	0.315211	22580.7	71636.8	75111.3	166706	52547.6	471939	174792
	23.6751	297.6	297.35	1.000001	30	2069	604746	27325.4	4.16437e+07	39716.2	41624.5	0.000045	605363	0.045185	0.032432	0.032421	2597.64	2597.37	258.75	1.863819	260.614	0.100266	84.2736	82.8879	0.114703	0.390166	0.028297	0.117788	0.016264	120032	8705.32	0.020848	0.002879	0.007841	0.030090	2412.38	0.005326	452997	144075	0.318049	22930.3	72096.7	75655.3	167777	53361.2	475357	176058
	24.3407	299.05	298.681	1.000001	30	2069	605576	27336.1	4.16394e+07	39714	41620.9	0.000045	606192	0.045141	0.032388	0.032377	2594.08	2593.82	255.138	1.863819	257.002	0.099011	84.0438	82.6581	0.114703	0.390494	0.028625	0.117926	0.016401	120134	8806.4	0.020872	0.002903	0.007743	0.030131	2382.2	0.005333	446719	143676	0.321625	22866.7	71097.5	74684.3	165452	53213.3	469255	173798
	24.992	300.4	299.984	1.000001	30	2069	605658	27190.8	4.16354e+07	39712.1	41609.8	0.000045	606268	0.044895	0.032142	0.032131	2593.76	2593.52	254.78	1.863819	256.644	0.098885	83.396	82.0102	0.114703	0.390796	0.028927	0.118052	0.016527	120226	8899.15	0.020894	0.002925	0.007733	0.030135	2379.16	0.005334	446097	142550	0.319549	22687.5	70998.4	74535.2	165221	52796.2	468319	173451
	25.6495	301.7	301.299	1.000001	30	2069	605660	27488.5	4.16314e+07	39705	41604.6	0.000045	606284	0.045386	0.032633	0.032621	2593.69	2593.41	254.616	1.863819	256.479	0.098826	84.6662	83.2804	0.114703	0.391094	0.029225	0.118177	0.016652	120318	8990.98	0.020916	0.002947	0.007729	0.030135	2377.74	0.005334	445811	144758	0.324706	23038.9	70953	74599.7	165115	53613.9	468724	173602
	26.3073	302.788	302.615	1.000001	30	2069	605819	27390.8	4.16285e+07	39707.9	41600	0.000045	606438	0.045213	0.032460	0.032448	2593.03	2592.76	253.93	1.863819	255.794	0.098586	84.1962	82.8104	0.114703	0.391316	0.029448	0.118270	0.016745	120387	9059.39	0.020933	0.002964	0.007710	0.030143	2371.97	0.005335	444619	143941	0.323739	22908.8	70763.2	74379.1	164674	53311.3	467338	173088
	26.9631	304.2	303.926	1.000001	30	2069	605818	27001.6	4.1625e+07	39693.9	41602	0.000045	606419	0.044571	0.031818	0.031808	2593.11	2592.9	254.015	1.863819	255.879	0.098614	82.5363	81.1505	0.114703	0.391581	0.029712	0.118380	0.016855	120468	9140.67	0.020952	0.002983	0.007712	0.030143	2372.64	0.005335	444767	141055	0.317144	22449.6	70786.8	74261.5	164729	52242.7	466599	172814
	27.6242	305.625	305.249	1.000001	30	2069	606450	26939.6	4.16218e+07	39689.6	41593.2	0.000045	607048	0.044422	0.031670	0.031659	2590.43	2590.22	251.296	1.863819	253.16	0.097666	82.0663	80.6804	0.114703	0.391827	0.029958	0.118483	0.016958	120544	9216.37	0.020970	0.003001	0.007638	0.030174	2349.84	0.005341	440041	140238	0.318694	22319.6	70034.6	73505.1	162978	51940.1	461847	171054
	28.2745	306.762	306.549	1.000001	30	2069	606640	26342.5	4.16188e+07	39687	41594.5	0.000045	607212	0.043424	0.030672	0.030663	2589.73	2589.6	250.635	1.863819	252.499	0.097435	79.4629	78.077	0.114703	0.392050	0.030181	0.118577	0.017052	120612	9285.12	0.020987	0.003018	0.007620	0.030183	2344.27	0.005342	438892	135713	0.309217	21599.4	69851.8	73115.1	162553	50264.1	459396	170147
	28.9297	308.15	307.859	1.000001	30	2069	606587	26426	4.16164e+07	39688	41590.5	0.000045	607162	0.043565	0.030814	0.030804	2589.94	2589.8	250.802	1.863819	252.665	0.097491	79.8353	78.4493	0.114703	0.392234	0.030365	0.118653	0.017129	120669	9341.61	0.021001	0.003032	0.007624	0.030181	2345.64	0.005342	439182	136360	0.310487	21702.4	69897.9	73189.5	162660	50503.8	459864	170320
	29.5784	309.55	309.157	1.000001	30	2069	606555	26154.2	4.16135e+07	39683	41595	0.000045	607119	0.043119	0.030368	0.030359	2590.12	2590.02	250.983	1.863819	252.847	0.097553	78.6882	77.3022	0.114703	0.392448	0.030579	0.118743	0.017218	120735	9407.59	0.021016	0.003047	0.007629	0.030179	2347.12	0.005341	439497	134366	0.305728	21385	69948	73144	162777	49765.3	459578	170214
	30.2331	310.7	310.466	1.000001	30	2069	607153	26129.6	4.16106e+07	39681.5	41584.6	0.000045	607715	0.043036	0.030285	0.030276	2587.58	2587.49	248.406	1.863819	250.27	0.096653	78.3963	77.0104	0.114703	0.392667	0.030798	0.118835	0.017310	120802	9474.87	0.021033	0.003064	0.007559	0.030209	2325.47	0.005347	435017	133859	0.307710	21304.3	69235	72438.7	161117	49577.4	455146	168573
	30.8823	311.938	311.765	1.000001	30	2069	607616	26146.2	4.16078e+07	39676.9	41582	0.000045	608179	0.043031	0.030280	0.030271	2585.61	2585.51	246.394	1.863819	248.258	0.095950	78.3225	76.9365	0.114703	0.392881	0.031012	0.118924	0.017399	120868	9540.68	0.021049	0.003080	0.007504	0.030232	2308.54	0.005351	431521	133731	0.309906	21283.9	68678.6	71901	159822	49529.9	451768	167321
	31.5414	313.5	313.083	1.000001	30	2069	607828	25655.8	4.16051e+07	39670	41588.9	0.000045	608369	0.042209	0.029459	0.029450	2584.8	2584.77	245.608	1.863819	247.472	0.095673	76.1763	74.7903	0.114703	0.393085	0.031217	0.119010	0.017485	120931	9603.63	0.021064	0.003095	0.007482	0.030242	2301.89	0.005353	430154	130000	0.302217	20690.1	68461.1	71519.3	159316	48148.1	449369	166433
	32.1964	314.738	314.393	1.000001	30	2069	608298	25609.5	4.16028e+07	39677.1	41578.8	0.000045	608837	0.042100	0.029350	0.029342	2582.81	2582.79	243.596	1.863819	245.46	0.094968	75.8374	74.4514	0.114703	0.393263	0.031394	0.119084	0.017559	120985	9658.27	0.021077	0.003108	0.007427	0.030265	2284.93	0.005357	426657	129411	0.303314	20596.4	67904.5	70959.4	158021	47930	445851	165130
	32.8534	315.925	315.707	1.000001	30	2069	608578	25534	4.16003e+07	39667	41577.8	0.000045	609114	0.041957	0.029207	0.029199	2581.64	2581.63	242.4	1.863819	244.264	0.094548	75.4332	74.0472	0.114703	0.393449	0.031581	0.119162	0.017637	121043	9715.6	0.021091	0.003122	0.007394	0.030279	2274.82	0.005359	424579	128708	0.303144	20484.6	67573.7	70610.4	157251	47669.8	443658	164318
	33.5133	317.363	317.027	1.000001	30	2069	609018	25083.9	4.15977e+07	39665.9	41574.2	0.000045	609534	0.041187	0.028438	0.028431	2579.86	2579.9	240.638	1.863819	242.502	0.093929	73.3987	72.0127	0.114703	0.393647	0.031778	0.119244	0.017720	121104	9776.42	0.021105	0.003136	0.007346	0.030301	2259.92	0.005363	421515	125172	0.296957	19921.7	67086.2	69981.6	156117	46360	439708	162855
	34.17	318.562	318.34	1.000001	30	2069	609825	24633.5	4.15954e+07	39663.9	41581.5	0.000045	610322	0.040394	0.027646	0.027639	2576.53	2576.63	237.331	1.863819	239.195	0.092766	71.2631	69.877	0.114703	0.393821	0.031952	0.119317	0.017792	121157	9829.82	0.021118	0.003149	0.007255	0.030341	2231.93	0.005370	415768	121460	0.292134	19330.9	66171.4	68937.2	153988	44985.1	433146	160424
	34.8255	320.1	319.651	1.000001	30	2069	609746	24495.5	4.15926e+07	39658	41573.8	0.000045	610237	0.040173	0.027425	0.027418	2576.89	2577	237.667	1.863819	239.531	0.092882	70.7041	69.318	0.114703	0.394033	0.032164	0.119406	0.017881	121222	9895.17	0.021134	0.003165	0.007264	0.030337	2234.74	0.005369	416351	120488	0.289391	19176.3	66264.2	68983.1	154204	44625.2	433434	160531
	35.4836	321.275	320.967	1.000001	30	2069	610108	24187	4.15903e+07	39656	41573.6	0.000045	610587	0.039644	0.026896	0.026889	2575.41	2575.56	236.195	1.863819	238.059	0.092363	69.3013	67.9152	0.114703	0.394203	0.032334	0.119477	0.017952	121275	9947.52	0.021146	0.003177	0.007223	0.030355	2222.25	0.005372	413792	118050	0.285288	18788.2	65857	68484.6	153256	43722.2	430302	159371
	36.1416	322.613	322.283	1.000001	30	2069	610654	23757.6	4.15882e+07	39653.6	41565.5	0.000045	611116	0.038905	0.026158	0.026152	2573.18	2573.38	233.986	1.863819	235.85	0.091584	67.3428	65.9567	0.114703	0.394366	0.032497	0.119545	0.018020	121325	9997.63	0.021158	0.003189	0.007162	0.030381	2203.49	0.005377	409953	114646	0.279655	18246.4	65246	67749.3	151835	42461.3	425682	157660
	36.7992	323.988	323.598	1.000001	30	2069	610940	23427.1	4.15859e+07	39650.6	41569.6	0.000045	611389	0.038346	0.025599	0.025594	2572.03	2572.27	232.842	1.863819	234.706	0.091178	65.8759	64.4898	0.114703	0.394539	0.032670	0.119617	0.018092	121378	10050.7	0.021171	0.003202	0.007131	0.030395	2193.75	0.005380	407964	112096	0.274769	17840.6	64929.4	67335.8	151098	41516.9	423084	156698
	37.4593	325.15	324.919	1.000001	30	2069	611667	23084.2	4.15834e+07	39650.6	41566.4	0.000045	612102	0.037740	0.024994	0.024988	2569.04	2569.31	229.846	1.863819	231.71	0.090118	64.2433	62.8571	0.114703	0.394727	0.032858	0.119696	0.018171	121436	10108.7	0.021185	0.003216	0.007048	0.030431	2168.24	0.005386	402757	109258	0.271275	17388.9	64100.7	66417.5	149169	40465.9	417313	154561
	38.1132	326.575	326.226	1.000001	30	2069	612120	22875.9	4.1581e+07	39640	41564	0.000045	612548	0.037372	0.024626	0.024621	2567.17	2567.46	227.967	1.863819	229.831	0.089452	63.2518	61.8655	0.114703	0.394913	0.033045	0.119774	0.018249	121493	10166	0.021199	0.003230	0.006996	0.030454	2152.2	0.005390	399490	107534	0.269179	17114.6	63580.8	65844	147959	39827.5	413710	153226
	38.7702	327.975	327.54	1.000001	30	2069	612690	22607.9	4.15794e+07	39640.8	41565.9	0.000045	613107	0.036899	0.024154	0.024149	2564.82	2565.15	225.629	1.863819	227.493	0.088622	61.9839	60.5977	0.114703	0.395034	0.033165	0.119824	0.018299	121530	10203	0.021208	0.003239	0.006931	0.030482	2132.23	0.005395	395427	105331	0.266371	16763.9	62934.2	65128.6	146455	39011.3	409216	151561
	39.4257	329.2	328.851	1.000001	30	2069	612757	21873	4.15766e+07	39637.8	41564.1	0.000045	613147	0.035696	0.022951	0.022947	2564.66	2565.06	225.498	1.863819	227.362	0.088574	58.8962	57.51	0.114703	0.395240	0.033371	0.119910	0.018385	121594	10266.5	0.021223	0.003254	0.006927	0.030485	2131.07	0.005396	395198	99963.5	0.252945	15909.7	62897.7	64878.7	146370	37023.5	407645	150980
	40.0757	330.525	330.151	1.000001	30	2069	613284	21533.4	4.15742e+07	39631	41560.6	0.000045	613662	0.035112	0.022367	0.022364	2562.5	2562.93	223.343	1.863819	225.207	0.087807	57.35	55.9637	0.114703	0.395423	0.033554	0.119987	0.018462	121650	10322.7	0.021237	0.003268	0.006867	0.030511	2112.62	0.005400	391453	97275.8	0.248499	15481.9	62301.6	64196.5	144983	36028.1	403359	149392
	40.7288	331.738	331.458	1.000001	30	2069	613764	21293.1	4.15724e+07	39637.4	41557	0.000045	614133	0.034693	0.021949	0.021945	2560.54	2560.99	221.376	1.863819	223.24	0.087106	56.2341	54.8478	0.114703	0.395558	0.033689	0.120043	0.018518	121691	10364.2	0.021247	0.003278	0.006812	0.030535	2095.76	0.005404	388034	95336.2	0.245690	15173.2	61757.5	63594.1	143716	35309.7	399574	147990
	41.3798	332.962	332.76	1.000001	30	2069	614380	21112.1	4.15699e+07	39628.4	41562.5	0.000045	614743	0.034363	0.021620	0.021616	2558	2558.47	218.817	1.863819	220.681	0.086192	55.3362	53.9499	0.114703	0.395752	0.033883	0.120124	0.018599	121751	10424	0.021261	0.003292	0.006741	0.030565	2073.78	0.005410	383587	93775.4	0.244470	14924.8	61049.7	62847.5	142069	34731.6	394883	146253
	42.067	334.337	334.134	1.000001	29	2068	593809	19899.5	4.15009e+07	39590.6	41455.8	0.000045	594143	0.033512	0.020768	0.020766	2558.47	2558.99	218.355	1.863819	220.218	0.085994	53.1685	51.7816	0.109489	0.395762	0.033893	0.122306	0.020781	121754	10427	0.021647	0.003678	0.006501	0.029541	2000.05	0.005229	382782	90006.5	0.235137	14325	60921.7	62583.2	141771	33335.7	393222	145638
	42.7175	335.725	335.435	1.000001	29	2068	594317	19630.4	4.14981e+07	39593.5	41458.4	0.000045	594641	0.033030	0.020287	0.020285	2556.32	2556.86	216.194	1.863819	218.057	0.085221	51.8937	50.5068	0.109489	0.395978	0.034109	0.122396	0.020871	121821	10493.5	0.021663	0.003694	0.006443	0.029567	1982.06	0.005233	379026	87790.6	0.231622	13972.3	60323.8	61920.8	140380	32515.1	389060	144096
	43.379	337.125	336.758	1.000001	29	2068	594473	19224.8	4.14959e+07	39588.5	41457.2	0.000045	594784	0.032339	0.019597	0.019594	2555.71	2556.29	215.586	1.863819	217.449	0.085003	50.1161	48.7291	0.109489	0.396138	0.034269	0.122463	0.020938	121870	10542.8	0.021675	0.003706	0.006426	0.029574	1976.98	0.005234	377969	84700.7	0.224094	13480.5	60155.7	61647.6	139989	31370.6	387344	143461
	44.0331	338.225	338.066	1.000001	29	2068	595132	19198.9	4.14937e+07	39580	41455.6	0.000045	595442	0.032260	0.019518	0.019515	2552.89	2553.46	212.73	1.863819	214.594	0.083979	49.8582	48.4712	0.109489	0.396305	0.034436	0.122532	0.021008	121921	10594.1	0.021687	0.003718	0.006349	0.029607	1953.18	0.005240	373006	84252.4	0.225874	13409.2	59365.7	60861.3	138150	31204.6	382403	141631
	44.679	339.637	339.358	1.000001	29	2068	595560	18839.5	4.14919e+07	39577.9	41454.8	0.000045	595858	0.031633	0.018891	0.018889	2551.1	2551.71	210.95	1.863819	212.814	0.083340	48.2253	46.8384	0.109489	0.396441	0.034572	0.122589	0.021064	121963	10635.9	0.021697	0.003728	0.006300	0.029628	1938.31	0.005244	369912	81414.2	0.220091	12957.5	58873.3	60282.3	137004	30153.4	378765	140283
	45.3422	341	340.685	1.000001	29	2068	596160	18210.1	4.149e+07	39571.2	41455	0.000045	596438	0.030546	0.017805	0.017803	2548.62	2549.28	208.494	1.863819	210.358	0.082456	45.4077	44.0207	0.109489	0.396586	0.034717	0.122650	0.021125	122008	10680.6	0.021708	0.003739	0.006234	0.029657	1917.76	0.005249	365643	76516.5	0.209266	12178	58193.9	59454.4	135423	28339.4	373563	138357
	45.9915	342.337	341.983	1.000001	29	2068	596647	18051.9	4.14879e+07	39575.9	41453.1	0.000045	596920	0.030256	0.017515	0.017513	2546.56	2547.23	206.416	1.863819	208.279	0.081707	44.6321	43.2451	0.109489	0.396747	0.034878	0.122717	0.021192	122057	10730.1	0.021720	0.003751	0.006177	0.029681	1900.34	0.005253	362030	75168.4	0.207630	11963.4	57618.8	58847.7	134085	27840.2	369751	136945
	46.642	343.525	343.284	1.000001	29	2068	596968	17809	4.14861e+07	39563.8	41447.2	0.000045	597234	0.029832	0.017092	0.017090	2545.23	2545.91	205.069	1.863819	206.933	0.081221	43.5319	42.1449	0.109489	0.396883	0.035014	0.122774	0.021249	122099	10772	0.021730	0.003761	0.006140	0.029697	1889.03	0.005256	359690	73256	0.203665	11659.1	57246.3	58421.5	133218	27131.9	367074	135953
	47.2915	344.875	344.583	1.000001	29	2068	597354	17242.6	4.14846e+07	39572.5	41449.1	0.000045	597602	0.028865	0.016125	0.016123	2543.66	2544.38	203.519	1.863819	205.383	0.080661	41.0448	39.6578	0.109489	0.396995	0.035126	0.122820	0.021295	122133	10806.3	0.021738	0.003769	0.006098	0.029716	1876.01	0.005259	356995	68932.9	0.193092	10971	56817.5	57867	132220	25530.7	363590	134663
	47.9417	346.163	345.883	1.000001	29	2068	597766	17203.4	4.14832e+07	39564.6	41448.1	0.000045	598014	0.028779	0.016039	0.016038	2541.91	2542.63	201.752	1.863819	203.615	0.080022	40.7991	39.412	0.109489	0.397104	0.035235	0.122866	0.021341	122167	10840	0.021746	0.003777	0.006050	0.029737	1861.14	0.005263	353923	68505.8	0.193561	10903	56328.6	57374.1	131083	25372.5	360492	133516
	48.6037	347.488	347.207	1.000001	29	2068	598642	17138.5	4.14813e+07	39566.6	41447.6	0.000045	598887	0.028629	0.015889	0.015888	2538.2	2538.93	198.022	1.863819	199.885	0.078670	40.3576	38.9706	0.109489	0.397244	0.035376	0.122924	0.021400	122210	10883.1	0.021757	0.003788	0.005947	0.029780	1829.71	0.005271	347440	67738.5	0.194965	10780.9	55296.7	56337.8	128681	25088.3	353981	131104
	49.2537	348.812	348.507	1.000001	29	2068	598923	16983.6	4.14795e+07	39556.4	41443	0.000045	599164	0.028357	0.015617	0.015616	2537.03	2537.77	196.833	1.863819	198.697	0.078238	39.6489	38.2618	0.109489	0.397381	0.035512	0.122981	0.021456	122252	10925	0.021767	0.003798	0.005915	0.029794	1819.66	0.005273	345374	66506.5	0.192564	10584.8	54967.9	55977.8	127916	24632	351719	130266
	49.9089	350.1	349.818	1.000001	29	2068	599016	16612.2	4.14777e+07	39561.6	41446.2	0.000045	599246	0.027733	0.014993	0.014992	2536.68	2537.44	196.482	1.863819	198.346	0.078110	38.0598	36.6727	0.109489	0.397523	0.035654	0.123040	0.021516	122296	10968.7	0.021777	0.003808	0.005905	0.029798	1816.68	0.005274	344764	63744.2	0.184892	10145.2	54870.9	55800.9	127690	23609	350608	129855
	50.5654	351.425	351.131	1.000001	29	2068	599339	16134.9	4.14762e+07	39555.9	41444.8	0.000045	599556	0.026921	0.014182	0.014181	2535.37	2536.16	195.18	1.863819	197.044	0.077637	35.9828	34.5957	0.109489	0.397631	0.035762	0.123086	0.021561	122329	11001.9	0.021785	0.003816	0.005869	0.029814	1805.66	0.005277	342500	60134	0.175574	9570.62	54510.5	55344.3	126852	22271.9	347739	128792
	51.2261	352.637	352.452	1.000001	29	2068	599577	16135.5	4.14744e+07	39555	41444.9	0.000045	599794	0.026911	0.014172	0.014171	2534.36	2535.15	194.146	1.863819	196.009	0.077260	35.944	34.5569	0.109489	0.397770	0.035901	0.123144	0.021619	122372	11044.9	0.021795	0.003826	0.005841	0.029826	1796.9	0.005279	340702	60066.6	0.176302	9559.88	54224.4	55060.7	126186	22246.9	345957	128132
	51.8789	354.087	353.758	1.000001	29	2068	600204	15725.9	4.14732e+07	39554.2	41441.9	0.000045	600410	0.026201	0.013462	0.013461	2531.76	2532.58	191.552	1.863819	193.416	0.076315	34.1081	32.7209	0.109489	0.397865	0.035997	0.123184	0.021659	122401	11074.2	0.021802	0.003833	0.005769	0.029857	1774.93	0.005284	336195	56875.4	0.169174	9051.99	53507	54267.3	124517	21064.9	340972	126286
	52.524	355.4	355.048	1.000001	29	2068	600924	15543.2	4.14714e+07	39549.2	41441.9	0.000045	601125	0.025866	0.013127	0.013126	2528.75	2529.58	188.524	1.863819	190.388	0.075209	33.2195	31.8323	0.109489	0.397996	0.036127	0.123238	0.021713	122441	11114.2	0.021812	0.003843	0.005686	0.029893	1749.21	0.005291	330931	55330.8	0.167197	8806.16	52669.2	53400.3	122567	20492.9	335524	124268
	53.1904	356.55	356.381	1.000001	29	2068	600899	15265.4	4.14698e+07	39547	41444.8	0.000045	601093	0.025404	0.012666	0.012665	2528.89	2529.73	188.651	1.863819	190.515	0.075255	32.0544	30.6673	0.109489	0.398121	0.036252	0.123290	0.021765	122480	11152.7	0.021821	0.003852	0.005689	0.029891	1750.27	0.005290	331152	53305.7	0.160971	8483.86	52704.4	53382.9	122649	19742.9	335415	124228
	53.8378	357.925	357.676	1.000001	29	2068	601344	15213.5	4.14687e+07	39546	41442.8	0.000045	601537	0.025299	0.012561	0.012560	2527.02	2527.86	186.772	1.863819	188.636	0.074568	31.7652	30.378	0.109489	0.398199	0.036330	0.123323	0.021798	122504	11176.8	0.021827	0.003858	0.005637	0.029913	1734.29	0.005294	327885	52802.9	0.161041	8403.84	52184.6	52856.9	121439	19556.6	332110	123004
	54.4917	359.4	358.983	1.000001	29	2068	601632	14850.8	4.14669e+07	39539.5	41440.6	0.000045	601816	0.024684	0.011946	0.011946	2525.85	2526.71	185.593	1.863819	187.457	0.074135	30.1967	28.8096	0.109489	0.398336	0.036468	0.123380	0.021855	122546	11219.1	0.021837	0.003868	0.005605	0.029927	1724.24	0.005297	325837	50076.6	0.153686	7969.94	51858.5	52467.3	120680	18546.9	329662	122097
	55.1502	360.712	360.3	1.000001	29	2068	602005	14679.9	4.1465e+07	39540.4	41440	0.000045	602184	0.024385	0.011647	0.011647	2524.3	2525.17	184.03	1.863819	185.893	0.073562	29.4231	28.0359	0.109489	0.398482	0.036613	0.123441	0.021916	122591	11263.8	0.021848	0.003879	0.005561	0.029946	1710.89	0.005300	323119	48731.9	0.150817	7755.91	51425.9	52007.5	119674	18048.8	326773	121027
	55.8041	362	361.608	1.000001	29	2068	602189	14445.5	4.14636e+07	39537.9	41435.2	0.000045	602362	0.023988	0.011251	0.011250	2523.56	2524.44	183.272	1.863819	185.136	0.073283	28.4132	27.026	0.109489	0.398591	0.036722	0.123486	0.021961	122624	11297.2	0.021856	0.003887	0.005540	0.029955	1704.42	0.005302	321802	46976.5	0.145979	7476.53	51216.4	51759.2	119186	17398.7	325213	120449
	56.4526	363.2	362.905	1.000001	29	2068	601963	14487.9	4.14618e+07	39532.2	41433.9	0.000045	602137	0.024068	0.011330	0.011330	2524.5	2525.38	184.187	1.863819	186.051	0.073618	28.6243	27.2371	0.109489	0.398726	0.036858	0.123543	0.022018	122666	11339	0.021866	0.003897	0.005566	0.029944	1712.21	0.005300	323393	47343.4	0.146396	7534.92	51469.5	52018.1	119775	17534.6	326840	121052
	57.1039	364.575	364.208	1.000001	29	2068	602803	14211.8	4.14606e+07	39534.6	41440.5	0.000045	602971	0.023576	0.010839	0.010838	2521.01	2521.9	180.693	1.863819	182.556	0.072335	27.3451	25.9579	0.109489	0.398815	0.036946	0.123580	0.022055	122693	11366.3	0.021873	0.003904	0.005469	0.029985	1682.36	0.005307	317318	45119.9	0.142191	7181.04	50502.7	51010.7	117525	16711.1	320510	118707
	57.758	365.85	365.516	1.000001	29	2068	602920	13790.5	4.1459e+07	39536.6	41433.6	0.000045	603078	0.022873	0.010136	0.010135	2520.56	2521.47	180.24	1.863819	182.104	0.072168	25.5672	24.18	0.109489	0.398935	0.037066	0.123630	0.022105	122730	11403.1	0.021881	0.003912	0.005456	0.029991	1678.48	0.005308	316532	42029.5	0.132781	6689.2	50377.6	50819.7	117234	15566.5	319310	118263
	58.4083	367.113	366.817	1.000001	29	2068	603370	13649.8	4.14567e+07	39529.9	41435.8	0.000045	603525	0.022623	0.009885	0.009885	2518.7	2519.61	178.344	1.863819	180.208	0.071469	24.9176	23.5303	0.109489	0.399114	0.037245	0.123704	0.022179	122785	11458.2	0.021895	0.003926	0.005403	0.030013	1662.23	0.005312	313237	40900.3	0.130573	6509.48	49853.2	50276.3	116014	15148.3	315896	116998
	59.0612	368.462	368.122	1.000001	29	2068	603780	13571.2	4.1455e+07	39529.9	41427.6	0.000045	603933	0.022477	0.009740	0.009740	2517	2517.91	176.623	1.863819	178.487	0.070834	24.5348	23.1475	0.109489	0.399238	0.037370	0.123756	0.022231	122824	11496.5	0.021904	0.003935	0.005355	0.030033	1647.46	0.005316	310245	40234.9	0.129688	6403.58	49377	49790.5	114906	14901.8	312843	115868
	59.7158	369.7	369.432	1.000001	29	2068	603915	13507.1	4.14538e+07	39527.8	41428.5	0.000045	604066	0.022366	0.009629	0.009629	2516.44	2517.36	176.051	1.863819	177.915	0.070623	24.2494	22.8622	0.109489	0.399332	0.037463	0.123795	0.022270	122852	11525.3	0.021911	0.003942	0.005339	0.030040	1642.54	0.005317	309250	39738.9	0.128501	6324.63	49218.6	49623.3	114537	14718.1	311793	115479
	60.3671	371.075	370.734	1.000001	29	2068	604623	13688.6	4.14526e+07	39524.8	41428.5	0.000045	604778	0.022640	0.009903	0.009903	2513.48	2514.39	173.065	1.863819	174.929	0.069520	24.9098	23.5225	0.109489	0.399421	0.037552	0.123832	0.022308	122880	11552.7	0.021917	0.003948	0.005256	0.030075	1616.88	0.005323	304060	40886.7	0.134469	6507.32	48392.6	48828.1	112615	15143.2	306796	113628
	61.0244	372.35	372.049	1.000001	29	2068	604626	13345.5	4.14509e+07	39522.1	41433.5	0.000045	604773	0.022072	0.009335	0.009335	2513.5	2514.42	173.073	1.863819	174.937	0.069522	23.4829	22.0956	0.109489	0.399554	0.037685	0.123888	0.022363	122921	11593.5	0.021927	0.003958	0.005256	0.030075	1616.94	0.005323	304075	38406.5	0.126306	6112.58	48394.9	48779.4	112620	14224.6	306490	113515
	61.6788	373.637	373.358	1.000001	29	2068	604839	13184.2	4.14494e+07	39524.1	41430	0.000045	604982	0.021798	0.009061	0.009061	2512.63	2513.55	172.187	1.863819	174.051	0.069193	22.7852	21.3978	0.109489	0.399665	0.037796	0.123934	0.022409	122955	11627.7	0.021935	0.003966	0.005231	0.030086	1609.3	0.005325	302534	37193.6	0.122940	5919.54	48149.7	48512.2	112049	13775.4	304811	112893
	62.3276	374.875	374.655	1.000001	29	2068	605264	12964.5	4.14478e+07	39515.8	41427.9	0.000045	605403	0.021420	0.008683	0.008683	2510.88	2511.81	170.423	1.863819	172.287	0.068540	21.8189	20.4316	0.109489	0.399789	0.037920	0.123986	0.022461	122993	11665.8	0.021944	0.003975	0.005182	0.030107	1594.09	0.005329	299469	35514	0.118590	5652.23	47661.9	47995.8	110914	13153.3	301567	111692
	62.982	376.3	375.964	1.000001	29	2068	605570	12988.9	4.1446e+07	39517.6	41425	0.000045	605710	0.021449	0.008712	0.008712	2509.61	2510.54	169.126	1.863819	170.99	0.068058	21.8817	20.4944	0.109489	0.399926	0.038057	0.124043	0.022518	123035	11708.1	0.021955	0.003986	0.005145	0.030122	1582.89	0.005331	297213	35623.2	0.119858	5669.61	47302.9	47641.5	110079	13193.8	299340	110867
	63.6325	377.637	377.265	1.000001	29	2068	606266	12783.4	4.14441e+07	39516.1	41423	0.000045	606401	0.021085	0.008349	0.008349	2506.75	2507.69	166.244	1.863819	168.107	0.066987	20.9451	19.5577	0.109489	0.400069	0.038200	0.124103	0.022578	123079	11752.1	0.021965	0.003996	0.005064	0.030157	1557.98	0.005337	292203	33995.1	0.116341	5410.49	46505.6	46819.2	108223	12590.8	294174	108953
	64.2828	378.9	378.566	1.000001	29	2068	606760	12714.9	4.14425e+07	39516.4	41427.8	0.000045	606894	0.020955	0.008219	0.008219	2504.72	2505.65	164.187	1.863819	166.051	0.066221	20.6022	19.2148	0.109489	0.400189	0.038321	0.124153	0.022628	123116	11789.1	0.021974	0.004005	0.005006	0.030181	1540.16	0.005342	288628	33399	0.115717	5315.62	45936.6	46243.1	106899	12370	290554	107613
[...]
	524.078	164.6	164.328	1.000001	37	2074	600066	11741	4.21344e+07	40168	42119.9	0.000044	600181	0.019566	0.006830	0.006830	3231.41	3233.04	900.92	1.863819	902.783	0.279076	22.094	20.7122	0.140772	0.379273	0.017404	0.102268	0.000743	116681	5354.17	0.018100	0.000131	0.026918	0.029844	8281.27	0.005282	1.56921e+06	36001.8	0.022943	5729.86	249748	249814	581190	13334	1.56963e+06	581343
	525.524	161.725	161.436	1.000001	37	2074	600269	12052.4	4.21403e+07	40189.6	42124.2	0.000044	600390	0.020078	0.007342	0.007342	3230.29	3231.91	899.86	1.863819	901.724	0.278846	23.7417	22.36	0.140772	0.378833	0.016964	0.102082	0.000557	116546	5218.77	0.018068	0.000099	0.026896	0.029854	8274.44	0.005284	1.56737e+06	38865.9	0.024797	6185.7	249455	249531	580508	14394.8	1.56785e+06	580686
	526.961	158.812	158.561	1.000001	37	2074	599138	12433.6	4.21465e+07	40191.6	42130.9	0.000044	599267	0.020753	0.008016	0.008016	3236.34	3237.94	905.976	1.863819	907.84	0.280214	25.9695	24.5878	0.140772	0.378367	0.016498	0.101886	0.000361	116403	5075.68	0.018033	0.000064	0.027028	0.029798	8315.05	0.005274	1.578e+06	42738.4	0.027084	6802.02	251147	251239	584445	15829	1.57858e+06	584660
	528.407	155.925	155.669	1.000001	37	2074	599133	11760.4	4.21527e+07	40199.1	42132.8	0.000044	599249	0.019629	0.006893	0.006893	3236.44	3238.07	906.183	1.863819	908.046	0.280267	22.3318	20.9502	0.140772	0.377898	0.016029	0.101688	0.000164	116259	4931.38	0.017998	0.000029	0.027033	0.029798	8316.61	0.005274	1.57836e+06	36415.4	0.023072	5795.69	251204	251271	584578	13487.2	1.57878e+06	584734
	529.863	153.012	152.757	1.000001	37	2074	599027	11722.6	4.21589e+07	40202.1	42138.6	0.000044	599141	0.019569	0.006834	0.006833	3237.02	3238.65	906.843	1.863819	908.707	0.280420	22.1431	20.7614	0.140772	0.377433	0.015564	0.101492	0.000033	116115	4788.24	0.017963	0.000006	0.027048	0.029792	8321.16	0.005273	1.57951e+06	36087.4	0.022847	5743.48	251386	251452	585003	13365.7	1.57992e+06	585156
	531.299	150.137	149.886	1.000001	37	2074	599252	11849.6	4.21647e+07	40201.8	42145.4	0.000044	599370	0.019774	0.007038	0.007038	3235.79	3237.42	905.678	1.863819	907.541	0.280168	22.797	21.4154	0.140772	0.376996	0.015127	0.101308	0.000217	115981	4653.76	0.017931	0.000038	0.027024	0.029804	8313.66	0.005275	1.57748e+06	37224	0.023597	5924.38	251064	251134	584253	13786.7	1.57792e+06	584416
	532.736	147.312	147.011	1.000001	37	2074	598398	12226.4	4.21705e+07	40208.5	42151.5	0.000044	598523	0.020432	0.007696	0.007695	3240.36	3241.98	910.314	1.863819	912.177	0.281203	24.9621	23.5806	0.140772	0.376565	0.014697	0.101127	0.000398	115848	4521.31	0.017898	0.000071	0.027123	0.029761	8344.38	0.005268	1.58554e+06	40987.6	0.025851	6523.37	252347	252431	587238	15180.6	1.58607e+06	587434
	534.212	144.425	144.059	1.000001	37	2074	598111	11937.4	4.21762e+07	40212.6	42153	0.000044	598230	0.019958	0.007222	0.007222	3241.95	3243.58	911.984	1.863819	913.848	0.281579	23.4387	22.0572	0.140772	0.376138	0.014269	0.100946	0.000579	115717	4389.73	0.017867	0.000102	0.027160	0.029747	8355.54	0.005265	1.58844e+06	38339.7	0.024137	6101.95	252809	252882	588313	14199.9	1.58891e+06	588484
	535.657	141.4	141.17	1.000001	37	2074	597230	11888.2	4.21824e+07	40214.6	42160	0.000044	597348	0.019906	0.007170	0.007169	3246.74	3248.37	916.857	1.863819	918.721	0.282663	23.3019	21.9204	0.140772	0.375671	0.013802	0.100749	0.000776	115573	4246.11	0.017832	0.000137	0.027264	0.029703	8387.7	0.005257	1.59691e+06	38101.9	0.023860	6064.1	254157	254229	591450	14111.8	1.59737e+06	591618
	537.096	138.575	138.292	1.000001	37	2074	597176	12298	4.21874e+07	40228.8	42170.4	0.000044	597303	0.020594	0.007857	0.007857	3246.98	3248.6	917.147	1.863819	919.01	0.282732	25.5387	24.1572	0.140772	0.375298	0.013429	0.100592	0.000933	115459	4131.39	0.017804	0.000165	0.027271	0.029701	8389.76	0.005257	1.59742e+06	41990	0.026286	6682.91	254237	254325	591636	15551.8	1.59797e+06	591841
	538.528	135.7	135.426	1.000001	37	2074	596677	12411.4	4.21935e+07	40239	42167.8	0.000044	596806	0.020801	0.008064	0.008064	3249.69	3251.3	919.925	1.863819	921.788	0.283351	26.2339	24.8525	0.140772	0.374843	0.012974	0.100400	0.001125	115318	3991.3	0.017770	0.000199	0.027331	0.029676	8408.13	0.005252	1.60225e+06	43198.5	0.026961	6875.24	255005	255098	593425	15999.4	1.60283e+06	593640
	539.97	132.7	132.544	1.000001	37	2074	596279	11888.5	4.22007e+07	40243.5	42178.4	0.000044	596398	0.019938	0.007202	0.007202	3251.91	3253.55	922.263	1.863819	924.126	0.283874	23.4437	22.0623	0.140772	0.374299	0.012430	0.100171	0.001354	115151	3824.1	0.017729	0.000240	0.027381	0.029656	8423.63	0.005249	1.60631e+06	38348.6	0.023874	6103.36	255652	255725	594930	14203.2	1.60677e+06	595100
	541.408	129.95	129.667	1.000001	37	2074	596140	11761.8	4.2207e+07	40253.9	42185.4	0.000044	596256	0.019730	0.006994	0.006994	3252.69	3254.33	923.121	1.863819	924.985	0.284069	22.7724	21.3911	0.140772	0.373827	0.011959	0.099972	0.001553	115006	3678.99	0.017694	0.000275	0.027400	0.029649	8429.43	0.005248	1.6078e+06	37181.9	0.023126	5917.68	255890	255958	595482	13771.1	1.60823e+06	595642
	542.85	127.05	126.783	1.000001	37	2074	595704	12171.2	4.22134e+07	40254.8	42190.2	0.000044	595829	0.020432	0.007695	0.007695	3255.02	3256.65	925.518	1.863819	927.381	0.284603	25.0747	23.6935	0.140772	0.373349	0.011480	0.099770	0.001755	114859	3531.7	0.017658	0.000311	0.027451	0.029627	8445.27	0.005244	1.61197e+06	41183.8	0.025549	6554.61	256553	256636	597026	15253.3	1.6125e+06	597220
	544.298	124.1	123.886	1.000001	37	2074	596070	12512.1	4.22187e+07	40269.4	42195.8	0.000044	596201	0.020991	0.008255	0.008254	3252.98	3254.6	923.534	1.863819	925.397	0.284172	26.8797	25.4985	0.140772	0.372952	0.011083	0.099603	0.001922	114737	3409.76	0.017629	0.000340	0.027410	0.029646	8432.5	0.005247	1.60852e+06	44321.3	0.027554	7053.95	256004	256101	595748	16415.3	1.60913e+06	595974
	545.733	121.312	121.018	1.000001	37	2074	595948	11565.8	4.22235e+07	40273.1	42195.1	0.000044	596060	0.019407	0.006671	0.006671	3253.75	3255.41	924.401	1.863819	926.265	0.284368	21.7297	20.3486	0.140772	0.372590	0.010721	0.099450	0.002075	114625	3298.21	0.017602	0.000367	0.027429	0.029639	8438.31	0.005246	1.61003e+06	35369.7	0.021968	5629.26	256244	256305	596307	13099.9	1.61042e+06	596450
	547.183	118.312	118.118	1.000001	37	2074	595511	12328.1	4.22298e+07	40275.1	42201.9	0.000044	595639	0.020702	0.007965	0.007965	3256.05	3257.68	926.752	1.863819	928.616	0.284891	25.9625	24.5814	0.140772	0.372114	0.010245	0.099249	0.002276	114479	3151.9	0.017566	0.000403	0.027479	0.029618	8453.83	0.005242	1.61411e+06	42727.2	0.026471	6800.25	256894	256984	597820	15824.9	1.61468e+06	598029
	548.619	115.425	115.245	1.000001	37	2074	595102	12240.2	4.22355e+07	40289.5	42196.9	0.000044	595227	0.020568	0.007832	0.007832	3258.3	3259.94	929.079	1.863819	930.943	0.285408	25.5456	24.1645	0.140772	0.371687	0.009818	0.099069	0.002456	114348	3020.53	0.017534	0.000435	0.027529	0.029597	8469.16	0.005238	1.61816e+06	42002.5	0.025957	6684.91	257538	257625	599319	15556.5	1.61871e+06	599520
	550.062	112.713	112.36	1.000001	37	2074	595273	12221.1	4.22409e+07	40289	42216.2	0.000044	595399	0.020530	0.007794	0.007794	3257.37	3259	928.207	1.863819	930.071	0.285222	25.4141	24.0331	0.140772	0.371288	0.009419	0.098900	0.002625	114225	2897.66	0.017504	0.000465	0.027511	0.029606	8463.65	0.005240	1.61664e+06	41774.1	0.025840	6648.56	257297	257382	598757	15471.9	1.61718e+06	598957
	551.498	109.7	109.486	1.000001	37	2074	593954	12782.5	4.22476e+07	40298.9	42214.5	0.000044	594092	0.021521	0.008784	0.008784	3264.53	3266.15	935.437	1.863819	937.3	0.286811	28.7063	27.3253	0.140772	0.370784	0.008915	0.098688	0.002837	114070	2742.72	0.017467	0.000502	0.027664	0.029541	8510.79	0.005228	1.62921e+06	47496.7	0.029153	7559.33	259297	259407	603411	17591.4	1.6299e+06	603668
	552.928	106.9	106.628	1.000001	37	2074	593757	11941.1	4.22537e+07	40292.4	42225.4	0.000044	593877	0.020111	0.007375	0.007375	3265.71	3267.36	936.729	1.863819	938.592	0.287099	24.1096	22.7286	0.140772	0.370326	0.008457	0.098494	0.003031	113929	2601.76	0.017433	0.000536	0.027692	0.029530	8519.35	0.005227	1.63146e+06	39506.8	0.024216	6287.7	259654	259730	604243	14632.1	1.63193e+06	604420
	554.375	104.05	103.733	1.000001	37	2074	593126	12642.2	4.22596e+07	40310.5	42222.8	0.000044	593260	0.021315	0.008578	0.008578	3269.11	3270.73	940.169	1.863819	942.033	0.287855	28.0715	26.6905	0.140772	0.369886	0.008017	0.098308	0.003217	113794	2466.37	0.017400	0.000569	0.027765	0.029499	8541.78	0.005221	1.63744e+06	46393.4	0.028333	7383.73	260606	260710	606458	17182.7	1.63809e+06	606701
	555.812	101.013	100.86	1.000001	37	2074	593570	12309.8	4.22653e+07	40322.6	42231.1	0.000044	593698	0.020738	0.008002	0.008002	3266.7	3268.34	937.846	1.863819	939.709	0.287355	26.1676	24.7868	0.140772	0.369455	0.007586	0.098126	0.003399	113661	2333.7	0.017367	0.000602	0.027717	0.029521	8526.95	0.005225	1.6334e+06	43084.2	0.026377	6857.06	259963	260053	604962	15957.1	1.63397e+06	605172
	557.248	98.275	97.9867	1.000001	37	2074	592920	12018.1	4.22705e+07	40314.8	42239.5	0.000044	593042	0.020269	0.007533	0.007533	3270.31	3271.97	941.538	1.863819	943.402	0.288164	24.6615	23.2807	0.140772	0.369068	0.007199	0.097963	0.003562	113542	2214.85	0.017339	0.000630	0.027795	0.029489	8550.96	0.005219	1.63982e+06	40466.4	0.024677	6440.42	260984	261064	607339	14987.6	1.64031e+06	607524
	558.686	95.2125	95.1105	1.000001	37	2074	592669	12567.6	4.22767e+07	40326.6	42237.9	0.000044	592802	0.021205	0.008469	0.008468	3271.64	3273.26	942.912	1.863819	944.776	0.288470	27.7348	26.354	0.140772	0.368606	0.006737	0.097768	0.003757	113400	2072.48	0.017304	0.000665	0.027824	0.029477	8560.02	0.005217	1.6422e+06	45808.4	0.027894	7290.62	261365	261466	608223	16966.1	1.64284e+06	608460
	560.135	92.4875	92.2126	1.000001	37	2074	592622	11829.2	4.22819e+07	40327	42244.2	0.000044	592740	0.019961	0.007225	0.007225	3271.98	3273.64	943.352	1.863819	945.216	0.288571	23.664	22.2833	0.140772	0.368212	0.006344	0.097602	0.003923	113279	1951.55	0.017275	0.000694	0.027834	0.029474	8563.03	0.005217	1.64297e+06	38732.7	0.023575	6164.49	261486	261559	608507	14345.4	1.64343e+06	608676
	561.57	89.6	89.3422	1.000001	37	2074	592201	12117.5	4.22875e+07	40344.5	42253.2	0.000044	592325	0.020462	0.007726	0.007725	3274.27	3275.92	945.7	1.863819	947.564	0.289087	25.3218	23.9411	0.140772	0.367795	0.005926	0.097426	0.004099	113150	1823.23	0.017243	0.000726	0.027884	0.029453	8578.33	0.005213	1.64705e+06	41614.2	0.025266	6623.1	262136	262220	610019	15412.7	1.64758e+06	610213
	563.006	86.8125	86.4702	1.000001	37	2074	591862	12464.1	4.22928e+07	40352.1	42254.2	0.000044	591993	0.021059	0.008323	0.008323	3276.11	3277.75	947.59	1.863819	949.454	0.289502	27.2943	25.9136	0.140772	0.367397	0.005528	0.097257	0.004267	113028	1700.68	0.017214	0.000755	0.027924	0.029436	8590.65	0.005210	1.65033e+06	45043	0.027293	7168.8	262659	262757	611235	16682.6	1.65095e+06	611463
	564.448	84.3125	83.5873	1.000001	37	2074	591780	12488.9	4.22975e+07	40355.6	42256.5	0.000044	591912	0.021104	0.008367	0.008367	3276.56	3278.19	948.096	1.863819	949.959	0.289617	27.4447	26.0641	0.140772	0.367046	0.005177	0.097109	0.004416	112920	1592.62	0.017187	0.000782	0.027935	0.029432	8594.05	0.005209	1.65121e+06	45304.4	0.027437	7210.42	262799	262898	611561	16779.4	1.65184e+06	611791
	565.87	81.8625	80.7435	1.000001	37	2074	590650	12141.8	4.23019e+07	40356.9	42258.6	0.000044	590775	0.020557	0.007820	0.007820	3282.86	3284.52	954.473	1.863819	956.337	0.291000	25.6996	24.319	0.140772	0.366713	0.004845	0.096969	0.004556	112818	1490.41	0.017163	0.000806	0.028068	0.029376	8635.1	0.005199	1.6623e+06	42271.2	0.025429	6727.66	264563	264648	615666	15656	1.66284e+06	615865
	567.332	79.6375	77.8189	1.000001	37	2074	590980	11784.4	4.23067e+07	40353.4	42272.5	0.000044	591098	0.019940	0.007204	0.007204	3281.07	3282.74	952.754	1.863819	954.618	0.290634	23.6626	22.282	0.140772	0.366358	0.004490	0.096819	0.004706	112708	1381.19	0.017136	0.000833	0.028033	0.029392	8624.24	0.005202	1.65931e+06	38730.5	0.023341	6164.14	264087	264159	614560	14344.6	1.65976e+06	614727
	568.782	77.3375	74.9189	1.000001	37	2074	591149	12441.2	4.23113e+07	40371.4	42268.9	0.000044	591280	0.021046	0.008309	0.008309	3280.06	3281.7	951.77	1.863819	953.634	0.290426	27.2836	25.9031	0.140772	0.366015	0.004146	0.096674	0.004851	112603	1275.48	0.017110	0.000859	0.028013	0.029401	8618.08	0.005204	1.6576e+06	45024.6	0.027162	7165.88	263815	263913	613926	16675.8	1.65821e+06	614153
	570.219	75.375	72.0459	1.000001	37	2074	591058	11867.2	4.23158e+07	40360.8	42277	0.000044	591177	0.020078	0.007342	0.007342	3280.63	3282.3	952.419	1.863819	954.283	0.290571	24.1111	22.7305	0.140772	0.365678	0.003809	0.096531	0.004994	112499	1171.75	0.017085	0.000884	0.028027	0.029396	8622.39	0.005203	1.65873e+06	39510.1	0.023820	6288.22	263995	264070	614344	14633.4	1.6592e+06	614518
	571.661	73.3	69.1604	1.000001	37	2074	590622	12402	4.232e+07	40376.1	42277.5	0.000044	590753	0.020998	0.008262	0.008262	3282.99	3284.63	954.806	1.863819	956.67	0.291091	27.1513	25.7708	0.140772	0.365362	0.003493	0.096398	0.005127	112402	1074.52	0.017062	0.000907	0.028077	0.029375	8637.81	0.005199	1.66288e+06	44794.7	0.026938	7129.29	264655	264751	615881	16590.6	1.66348e+06	616104
	573.089	71.55	66.3046	1.000001	37	2074	589780	12271.2	4.2324e+07	40381.1	42281.2	0.000044	589908	0.020806	0.008070	0.008070	3287.69	3289.34	959.565	1.863819	961.429	0.292121	26.5595	25.1791	0.140772	0.365062	0.003193	0.096271	0.005254	112310	982.367	0.017039	0.000930	0.028176	0.029333	8668.35	0.005192	1.67115e+06	43766.1	0.026189	6965.59	265972	266063	618944	16209.7	1.67172e+06	619157
	574.515	69.6	63.4524	1.000001	37	2074	589827	11786.1	4.23276e+07	40371.1	42290.1	0.000044	589945	0.019982	0.007246	0.007246	3287.48	3289.16	959.426	1.863819	961.29	0.292094	23.8469	22.4665	0.140772	0.364793	0.002924	0.096157	0.005367	112227	899.685	0.017019	0.000950	0.028174	0.029335	8667.58	0.005192	1.67091e+06	39051.1	0.023371	6215.17	265933	266006	618855	14463.4	1.67136e+06	619024
	575.952	67.975	60.5798	1.000001	37	2074	590400	12600.4	4.23314e+07	40386.8	42288	0.000044	590534	0.021342	0.008606	0.008605	3284.2	3285.84	956.152	1.863819	958.015	0.291394	28.2915	26.9111	0.140772	0.364507	0.002639	0.096037	0.005488	112139	811.741	0.016998	0.000971	0.028106	0.029364	8646.78	0.005197	1.66522e+06	46776.8	0.028091	7444.75	265027	265132	616747	17324.7	1.66587e+06	616990
	577.391	66.25	57.7011	1.000001	37	2074	589452	12299.5	4.2335e+07	40395.9	42294	0.000044	589581	0.020866	0.008130	0.008129	3289.51	3291.17	961.526	1.863819	963.39	0.292554	26.7702	25.3898	0.140772	0.364235	0.002366	0.095921	0.005604	112055	727.795	0.016977	0.000992	0.028218	0.029316	8681.21	0.005189	1.67456e+06	44132.4	0.026355	7023.89	266514	266607	620207	16345.3	1.67514e+06	620422
	578.84	64.55	54.8036	1.000001	37	2074	589671	11694.1	4.23384e+07	40393.8	42299.4	0.000044	589787	0.019832	0.007096	0.007095	3288.36	3290.04	960.441	1.863819	962.305	0.292324	23.3573	21.9769	0.140772	0.363981	0.002112	0.095814	0.005711	111977	649.885	0.016958	0.001011	0.028196	0.029327	8674.4	0.005191	1.67267e+06	38200.2	0.022838	6079.75	266214	266283	619508	14148.2	1.67311e+06	619670
	580.273	63.1	51.9373	1.000001	37	2074	589004	12294.4	4.2342e+07	40398.1	42299	0.000044	589132	0.020873	0.008137	0.008137	3292.02	3293.68	964.116	1.863819	965.98	0.293117	26.8142	25.4339	0.140772	0.363711	0.001842	0.095700	0.005825	111894	566.72	0.016938	0.001031	0.028273	0.029294	8697.93	0.005185	1.67906e+06	44209.1	0.026330	7036.09	267231	267323	621874	16373.7	1.67964e+06	622090
	581.702	61.8625	49.0789	1.000001	37	2074	589752	12207.2	4.23448e+07	40398.4	42300.8	0.000044	589878	0.020699	0.007963	0.007962	3287.85	3289.51	959.985	1.863819	961.849	0.292233	26.2072	24.8269	0.140772	0.363506	0.001637	0.095613	0.005912	111831	503.564	0.016923	0.001046	0.028187	0.029331	8671.7	0.005191	1.67188e+06	43153.9	0.025812	6868.15	266088	266176	619215	15982.9	1.67244e+06	619421
	583.132	60.3	46.2183	1.000001	37	2074	589066	12576.8	4.23475e+07	40402.2	42305	0.000044	589200	0.021350	0.008614	0.008614	3291.63	3293.28	963.786	1.863819	965.65	0.293053	28.3827	27.0024	0.140772	0.363304	0.001435	0.095528	0.005997	111769	441.386	0.016908	0.001061	0.028266	0.029297	8696.01	0.005185	1.67849e+06	46935.4	0.027963	7469.99	267139	267244	621662	17383.5	1.67914e+06	621905
	584.56	59	43.363	1.000001	37	2074	589304	12192.8	4.23502e+07	40399.8	42310.2	0.000044	589430	0.020690	0.007954	0.007954	3290.35	3292.01	962.554	1.863819	964.417	0.292791	26.1979	24.8176	0.140772	0.363100	0.001231	0.095442	0.006083	111706	378.772	0.016892	0.001077	0.028241	0.029309	8688.24	0.005187	1.67634e+06	43137.9	0.025733	6865.6	266798	266887	620868	15977	1.6769e+06	621074
	585.998	57.6	40.4879	1.000001	37	2074	589222	12739.8	4.23531e+07	40417.4	42311.1	0.000044	589359	0.021621	0.008885	0.008884	3290.75	3292.38	962.957	1.863819	964.821	0.292881	29.2673	27.8871	0.140772	0.362885	0.001016	0.095351	0.006174	111640	312.46	0.016876	0.001093	0.028250	0.029305	8690.91	0.005187	1.67705e+06	48473.1	0.028904	7714.73	266910	267021	621128	17953	1.67775e+06	621388
	586.394	57.3	39.6954	1.000001	37	2074	589206	12327.2	4.2354e+07	40409.1	42305.8	0.000044	589334	0.020922	0.008185	0.008185	3290.89	3292.54	963.128	1.863819	964.992	0.292918	26.9652	25.585	0.140772	0.362812	0.000944	0.095320	0.006205	111617	290.292	0.016871	0.001098	0.028253	0.029304	8692.03	0.005187	1.67734e+06	44471.7	0.026513	7077.89	266957	267051	621238	16471	1.67793e+06	621457

	BALANCE ZERO CALIBRATION RESULTS:
Date:	2/16/2016 3:55:56 PM
Zero Displacement Value:	45367595
Rebalance Force Value:	1980.000

	FORCE FACTOR CALIBRATION RESULTS:
Date:	7/27/2015 3:21:49 PM
Force Factor Value:	  383.599

	SPRING CALIBRATION RESULTS:
Date:	12/4/2014 2:37:24 PM
Stiffness polynomial = 	4.3980e-005, -7.5231e-014, 2.5704e-020, -3.6776e-029, -1.5883e-035, 2.9932e-045, 1.3748e-050
Spring Damping =	0.000593

	FORCE DISPLACEMENT CALIBRATION RESULTS:
Date:	2/22/2016 4:13:16 PM
Displacement Factor Value:	30874

	DE-MOD CONSTANT CALIBRATION RESULTS:
Date:	2/22/2016 4:13:16 PM
De-Mod Constant Value:	0.000562

	PHASE OFFSET CALIBRATION RESULTS:
Date:	2/22/2016 4:13:16 PM
Phase Offset Value:	   -0.009200

	DRIVE SHAFT MASS CALIBRATION RESULTS:
Date:	2/22/2016 4:13:16 PM
Drive Shaft Mass = 	   37.868 g

	OVEN CALIBRATION RESULTS:
Date:	2/22/2016 4:13:16 PM
Sensor Type = 	10
Oven Resistance = 	5.600 Ohms
Oven Name = 	Standard Air OvenStandard Air Oven

	TEMPERATURE CALIBRATION:
Date:	2/22/2016 4:13:16 PM
Upper Limit = 	400.00 °C
Lower Limit = 	-200.00 °C
Offset = 	-6.000
Span = 	-8.700
Ambient: 	Expected 	21.00 (°C)	Measured 	21.00 (°C)
Indium: 	Expected 	156.60 (°C)	Measured 	156.60 (°C)

	PID CALIBRATION:
Date:	12/16/2014 11:36:02 AM
Set Point =	 105.000 °C
PropBand = 	23.000
PropBandSP2 = 	13.000
Integral = 	2.100
Derivative = 	9.000
Calculated Integral = 	-57

	STIFFNESS INFINITY CALIBRATION RESULTS:
Date:	2/22/2016 4:13:16 PM
Stiffness Infinity = 	6130000.000

	INSTRUMENT INFOMATION CALIBRATION RESULTS:
Date:	2/22/2016 4:13:16 PM
DMA Serial Number = 	3066274
Vibrator Serial Number = 	22865
LVDT Serial Number = 	624.08
Analogue PCB Serial Number = 	890
Digital PCB Serial Number = 	895
PIC Code = 	603
FPGA Code = 	621
Instrument Type = 	2
AD Fitted = 	No

	PROFILE VALUES FOR THIS DATA:

Software Version	11.1.0.0488
Firmware Version	603.621
Load Temperature	22.0 °C
Go To Temp Rate	2.0 °C/min
Load Strain	0.010 mm
Load Frequency	1.0 Hz
Strain control window	0.02
Cooling Device
Automatic cryogenic control is 	Off
Automatic cryogenic control on temperature	50.0
Automatic cryogenic control off temperature	40.0
Number of averages	2
Broken sample threshold	0.0 %
Poisson's Ratio	0.35